{
  "id": "22080002XX",
  "reaction": {
    "x4code": "(92-U-233(N,F),,SIG)",
    "target": "92-U-233",
    "process": "N,F",
    "sf4": null,
    "residual": null,
    "sf5": null,
    "sf6": "SIG",
    "sf7": null,
    "sf8": null,
    "sf9": null,
    "freetext": []
  },
  "measurement_conditions": {
    "MONIT-REF": {
      "XX": {
        "0": {
          "x4code": null,
          "freetext": [
            "",
            "  A normalization was done in the thermal region",
            " relative to the zero fission cross-sections values",
            " proposed for the ENDF-B6 file for U233."
          ]
        }
      }
    },
    "MONITOR": {
      "XX": {
        "0": {
          "x4code": [
            "(92-U-233(N,F),,SIG)"
          ],
          "freetext": [
            ""
          ]
        }
      }
    },
    "SAMPLE": {
      "XX": {
        "0": {
          "freetext": [
            ".The fissile layer were mounted back to back with the",
            " layer of 25 micro-g Li6F/cm2,in the center of a vacuum",
            " chamber. The fissile layers were evaporated homoge-",
            " neously with a thickness of 40 micro-g U233/cm2",
            " (233UF4)"
          ]
        }
      }
    }
  },
  "common_data": {
    "heads": [
      "EN-NRM",
      "MONIT",
      "MONIT-ERR"
    ],
    "units": [
      "EV",
      "B",
      "PER-CENT"
    ],
    "data": [
      [
        0.0253
      ],
      [
        531.14
      ],
      [
        0.25
      ]
    ]
  },
  "data_table": {
    "heads": [
      "EN",
      "DATA",
      "ERR-1"
    ],
    "units": [
      "EV",
      "B",
      "B"
    ],
    "data": [
      [
        0.0020014,
        0.0020256,
        0.0020502,
        0.0020754,
        0.0021009,
        0.0021204,
        0.0021336,
        0.0021535,
        0.0021806,
        0.0022082,
        0.0022362,
        0.0022649,
        0.0022941,
        0.0023238,
        0.0023542,
        0.0023852,
        0.0024086,
        0.0024245,
        0.0024488,
        0.0024817,
        0.0025151,
        0.0025493,
        0.0025841,
        0.0026062,
        0.0026152,
        0.0026242,
        0.0026331,
        0.002656,
        0.0026931,
        0.002731,
        0.0027696,
        0.0028091,
        0.0028495,
        0.0028907,
        0.0029328,
        0.0029759,
        0.0030199,
        0.0030649,
        0.0031109,
        0.0031579,
        0.003206,
        0.0032552,
        0.0033056,
        0.0033571,
        0.0033898,
        0.003403,
        0.0034164,
        0.0034299,
        0.003464,
        0.0035192,
        0.0035759,
        0.003634,
        0.0036934,
        0.0037387,
        0.0037696,
        0.0038167,
        0.0038807,
        0.0039464,
        0.0040138,
        0.0040828,
        0.0041355,
        0.0041714,
        0.0042078,
        0.0042446,
        0.004301,
        0.0043775,
        0.0044563,
        0.0045165,
        0.0045573,
        0.0046201,
        0.0047055,
        0.0047932,
        0.0048834,
        0.0049762,
        0.0050717,
        0.00517,
        0.005271,
        0.0053355,
        0.0053618,
        0.0053882,
        0.0054148,
        0.0054825,
        0.0055929,
        0.0057069,
        0.0057942,
        0.0058537,
        0.0059142,
        0.0059757,
        0.0060701,
        0.0061989,
        0.0063318,
        0.0064691,
        0.0066108,
        0.0067573,
        0.0068507,
        0.0068889,
        0.0069274,
        0.0069662,
        0.0070251,
        0.0071047,
        0.0071858,
        0.0072682,
        0.0073519,
        0.0074372,
        0.0075239,
        0.0076121,
        0.0077019,
        0.0077933,
        0.0078863,
        0.007981,
        0.0080775,
        0.0081758,
        0.0082757,
        0.0083775,
        0.0084813,
        0.008587,
        0.0086946,
        0.0088044,
        0.0089737,
        0.009206,
        0.0093853,
        0.0095084,
        0.009634,
        0.0097619,
        0.0098924,
        0.010026,
        0.010162,
        0.0103,
        0.010442,
        0.010586,
        0.010734,
        0.010885,
        0.011039,
        0.011196,
        0.011356,
        0.01152,
        0.011645,
        0.01173,
        0.011815,
        0.011902,
        0.012124,
        0.01249,
        0.012774,
        0.01297,
        0.013119,
        0.013221,
        0.013323,
        0.013427,
        0.013694,
        0.01402,
        0.014245,
        0.014476,
        0.014712,
        0.014954,
        0.015202,
        0.015456,
        0.015717,
        0.015985,
        0.016259,
        0.016687,
        0.01728,
        0.017906,
        0.018394,
        0.018733,
        0.019264,
        0.020001,
        0.020781,
        0.021609,
        0.022486,
        0.023418,
        0.02441,
        0.025465,
        0.026152,
        0.026352,
        0.02647,
        0.026588,
        0.02689,
        0.027381,
        0.027885,
        0.028404,
        0.028937,
        0.029485,
        0.030049,
        0.030629,
        0.031226,
        0.031841,
        0.032475,
        0.03296,
        0.033291,
        0.033799,
        0.034492,
        0.035206,
        0.035943,
        0.036703,
        0.037488,
        0.038298,
        0.039134,
        0.039998,
        0.040891,
        0.041815,
        0.04277,
        0.043758,
        0.044518,
        0.045039,
        0.04584,
        0.046937,
        0.047782,
        0.048361,
        0.049253,
        0.050161,
        0.050784,
        0.051744,
        0.053061,
        0.054429,
        0.055305,
        0.055664,
        0.056026,
        0.056392,
        0.057329,
        0.058867,
        0.060055,
        0.060871,
        0.062134,
        0.063423,
        0.064309,
        0.065681,
        0.067082,
        0.068046,
        0.06954,
        0.071598,
        0.073749,
        0.075999,
        0.078353,
        0.080818,
        0.083402,
        0.086111,
        0.088955,
        0.091942,
        0.095082,
        0.098385,
        0.10186,
        0.10553,
        0.1094,
        0.11348,
        0.1178,
        0.12237,
        0.12721,
        0.13234,
        0.13779,
        0.14133,
        0.14243,
        0.14317,
        0.14392,
        0.14582,
        0.14893,
        0.15213,
        0.1546,
        0.15628,
        0.15886,
        0.1624,
        0.16605,
        0.16983,
        0.17374,
        0.17779,
        0.18197,
        0.18631,
        0.19081,
        0.19547,
        0.2003,
        0.20532,
        0.21052,
        0.21593,
        0.22154,
        0.22738,
        0.23345,
        0.23977,
        0.24635,
        0.25321,
        0.26035,
        0.2678,
        0.27557,
        0.28369,
        0.29218,
        0.30104,
        0.31032,
        0.32004,
        0.33022,
        0.34089,
        0.35208,
        0.36384,
        0.3762,
        0.3892,
        0.40288,
        0.41355,
        0.42095,
        0.4325,
        0.44855,
        0.46552,
        0.48346,
        0.50246,
        0.52261,
        0.54399,
        0.56671,
        0.59088,
        0.61664,
        0.64411,
        0.67347,
        0.70487,
        0.72536,
        0.73391,
        0.74262,
        0.75148,
        0.77466,
        0.81351,
        0.85535,
        0.90051,
        0.94934,
        1.0023,
        1.0597,
        1.1223,
        1.1723,
        1.208,
        1.2356,
        1.2474,
        1.2522,
        1.257,
        1.2693,
        1.2891,
        1.3094,
        1.3303,
        1.3516,
        1.3678,
        1.3789,
        1.3958,
        1.4187,
        1.4422,
        1.4662,
        1.4909,
        1.5098,
        1.5226,
        1.5422,
        1.562,
        1.5755,
        1.5961,
        1.6242,
        1.653,
        1.675,
        1.69,
        1.7051,
        1.7205,
        1.7441,
        1.7761,
        1.8091,
        1.8429,
        1.8689,
        1.8865,
        1.9044,
        1.9226,
        1.9504,
        1.9884,
        2.0274,
        2.0676,
        2.1091,
        2.1518,
        2.1957,
        2.2295,
        2.2525,
        2.27,
        2.2818,
        2.2936,
        2.3056,
        2.3177,
        2.3298,
        2.3421,
        2.3544,
        2.3669,
        2.3794,
        2.3921,
        2.4048,
        2.4373,
        2.4904,
        2.5452,
        2.6019,
        2.6605,
        2.7211,
        2.7838,
        2.8486,
        2.8985,
        2.9327,
        2.9853,
        3.0574,
        3.1322,
        3.2097,
        3.2901,
        3.3735,
        3.4602,
        3.5157,
        3.5384,
        3.5614,
        3.5846,
        3.644,
        3.7039,
        3.7285,
        3.7533,
        3.7784,
        3.8427,
        3.9482,
        4.0582,
        4.1728,
        4.2923,
        4.417,
        4.4971,
        4.53,
        4.5632,
        4.5969,
        4.6833,
        4.8256,
        4.9745,
        5.1304,
        5.2937,
        5.4649,
        5.6446,
        5.7844,
        5.8811,
        6.0316,
        6.2403,
        6.3748,
        6.4304,
        6.4868,
        6.5438,
        6.6016,
        6.6602,
        6.7196,
        6.7798,
        6.8408,
        6.9026,
        6.9652,
        7.0288,
        7.0931,
        7.1584,
        7.2246,
        7.2917,
        7.4654,
        7.7535,
        8.0586,
        8.3821,
        8.7255,
        8.9482,
        9.0408,
        9.1348,
        9.2303,
        9.4786,
        9.7309,
        9.836,
        9.9427,
        10.051,
        10.161,
        10.273,
        10.387,
        10.503,
        10.621,
        10.741,
        10.863,
        10.987,
        11.31,
        11.851,
        12.204,
        12.351,
        12.502,
        12.655,
        12.811,
        12.97,
        13.131,
        13.296,
        13.464,
        13.635,
        13.81,
        13.988,
        14.169,
        14.354,
        14.542,
        14.734,
        14.93,
        15.13,
        15.334,
        15.542,
        15.755,
        15.972,
        16.193,
        16.419,
        16.65,
        16.885,
        17.126,
        17.372,
        17.623,
        17.879,
        18.142,
        18.41,
        18.684,
        18.964,
        19.251,
        19.544,
        19.844,
        20.151
      ],
      [
        1779.2,
        1856.0,
        1797.0,
        1927.3,
        1991.5,
        1872.0,
        1806.9,
        1824.4,
        1604.5,
        1745.8,
        1788.6,
        1800.3,
        1816.8,
        1742.2,
        1768.5,
        1649.1,
        1715.6,
        1661.8,
        1798.9,
        1670.1,
        1722.0,
        1658.0,
        1549.4,
        1385.8,
        1833.6,
        1792.8,
        1441.6,
        1642.0,
        1680.6,
        1564.7,
        1551.2,
        1590.4,
        1668.2,
        1499.4,
        1523.6,
        1497.2,
        1459.6,
        1508.9,
        1456.9,
        1438.7,
        1418.0,
        1384.1,
        1506.7,
        1470.2,
        1412.6,
        1379.5,
        1219.9,
        1590.0,
        1432.9,
        1364.0,
        1406.2,
        1457.8,
        1334.3,
        1457.8,
        1246.9,
        1356.9,
        1336.4,
        1352.6,
        1279.1,
        1331.5,
        1274.7,
        1271.6,
        1338.0,
        1239.5,
        1234.3,
        1225.1,
        1235.6,
        1220.3,
        1249.3,
        1226.9,
        1221.5,
        1227.6,
        1234.0,
        1175.0,
        1192.6,
        1192.0,
        1132.8,
        1093.4,
        1153.1,
        1219.6,
        1149.2,
        1155.7,
        1110.7,
        1139.0,
        1098.7,
        1144.4,
        1102.7,
        1039.0,
        1088.7,
        1058.8,
        1059.0,
        1048.6,
        1004.7,
        1024.1,
        1032.2,
        1002.0,
        976.19,
        1027.3,
        1020.4,
        1007.0,
        989.48,
        998.37,
        991.63,
        974.54,
        945.01,
        946.34,
        948.35,
        927.42,
        938.83,
        947.87,
        939.02,
        932.85,
        945.66,
        927.73,
        889.79,
        895.49,
        865.94,
        915.79,
        899.72,
        892.16,
        864.92,
        831.58,
        845.78,
        822.72,
        841.07,
        807.85,
        843.54,
        844.98,
        817.35,
        815.94,
        811.71,
        830.64,
        782.08,
        784.29,
        794.25,
        798.42,
        776.95,
        811.37,
        768.01,
        746.04,
        754.34,
        744.62,
        750.45,
        730.99,
        739.09,
        738.47,
        723.16,
        750.93,
        710.22,
        700.38,
        696.55,
        673.35,
        691.48,
        680.56,
        678.03,
        675.78,
        669.16,
        659.23,
        644.13,
        652.27,
        652.33,
        629.17,
        633.5,
        604.49,
        613.7,
        603.17,
        589.97,
        573.81,
        561.59,
        548.72,
        540.75,
        530.55,
        535.98,
        518.03,
        494.03,
        520.34,
        512.58,
        496.22,
        524.72,
        504.95,
        500.93,
        491.38,
        495.12,
        483.56,
        475.59,
        470.07,
        468.82,
        463.2,
        456.08,
        464.78,
        446.72,
        451.95,
        431.97,
        442.28,
        431.04,
        423.23,
        428.34,
        422.99,
        425.23,
        413.08,
        402.54,
        412.06,
        388.79,
        403.59,
        392.65,
        383.53,
        382.73,
        377.8,
        383.76,
        379.41,
        392.87,
        355.0,
        366.62,
        358.71,
        385.13,
        365.95,
        345.15,
        355.09,
        341.02,
        342.56,
        329.51,
        345.19,
        335.06,
        328.08,
        340.12,
        331.68,
        332.77,
        319.77,
        316.15,
        328.31,
        308.15,
        309.79,
        304.15,
        286.12,
        276.81,
        286.7,
        291.66,
        283.87,
        268.03,
        257.56,
        261.39,
        254.56,
        247.13,
        234.91,
        230.28,
        227.36,
        227.91,
        218.94,
        223.34,
        229.31,
        215.95,
        218.24,
        211.27,
        224.1,
        219.41,
        211.58,
        217.31,
        196.72,
        208.92,
        207.01,
        209.43,
        197.04,
        206.75,
        196.25,
        202.46,
        200.4,
        201.12,
        199.91,
        201.4,
        203.58,
        188.02,
        193.18,
        187.14,
        194.25,
        183.86,
        177.99,
        172.32,
        181.52,
        181.78,
        170.51,
        187.92,
        169.75,
        167.5,
        171.05,
        166.79,
        157.05,
        172.92,
        154.82,
        151.6,
        149.64,
        153.1,
        151.13,
        147.57,
        154.53,
        147.14,
        143.5,
        148.13,
        134.82,
        142.6,
        136.04,
        137.5,
        129.91,
        128.24,
        132.14,
        131.26,
        126.31,
        122.43,
        120.27,
        135.05,
        105.9,
        121.72,
        132.02,
        116.02,
        121.9,
        122.0,
        124.27,
        137.94,
        147.51,
        152.8,
        170.92,
        178.84,
        190.63,
        216.31,
        207.15,
        208.55,
        221.07,
        212.48,
        233.38,
        229.55,
        253.0,
        262.33,
        247.09,
        298.7,
        263.55,
        299.88,
        318.5,
        323.61,
        326.57,
        326.84,
        368.15,
        370.75,
        362.14,
        398.22,
        415.45,
        435.45,
        498.87,
        529.16,
        602.65,
        647.04,
        665.46,
        755.09,
        843.82,
        887.83,
        792.12,
        719.07,
        608.95,
        566.68,
        511.3,
        463.69,
        383.92,
        325.94,
        288.56,
        277.59,
        279.26,
        324.67,
        421.67,
        477.16,
        520.43,
        607.04,
        555.31,
        571.61,
        638.54,
        525.36,
        460.47,
        366.92,
        304.67,
        255.55,
        187.17,
        134.26,
        85.841,
        69.405,
        52.847,
        48.8,
        52.834,
        47.243,
        48.979,
        52.283,
        49.629,
        42.777,
        53.688,
        62.87,
        65.486,
        71.431,
        83.843,
        99.766,
        126.91,
        135.59,
        138.04,
        138.44,
        178.65,
        190.93,
        167.91,
        134.42,
        128.09,
        112.05,
        76.65,
        61.51,
        52.632,
        57.125,
        66.32,
        84.253,
        94.768,
        89.823,
        79.533,
        109.1,
        111.56,
        105.85,
        96.343,
        82.823,
        65.531,
        60.505,
        65.179,
        96.994,
        113.99,
        115.26,
        108.62,
        118.21,
        121.66,
        126.22,
        158.27,
        200.3,
        264.98,
        359.9,
        524.98,
        594.75,
        566.04,
        364.39,
        212.69,
        123.27,
        80.544,
        56.115,
        44.996,
        48.394,
        35.721,
        27.152,
        29.571,
        39.646,
        31.66,
        38.91,
        49.071,
        65.992,
        66.709,
        71.691,
        66.513,
        86.14,
        127.74,
        185.46,
        306.38,
        460.01,
        431.29,
        311.81,
        181.16,
        112.62,
        93.601,
        82.939,
        58.32,
        70.273,
        84.153,
        127.12,
        204.41,
        304.76,
        267.34,
        152.26,
        79.025,
        65.132,
        80.48,
        83.927,
        72.02,
        34.662,
        20.472,
        16.972,
        14.653,
        20.808,
        52.01,
        128.03,
        171.61,
        110.43,
        101.03,
        134.59,
        162.82,
        164.04,
        89.021,
        32.14,
        24.214,
        24.517,
        52.704,
        72.376,
        78.613,
        123.0,
        194.34,
        177.24,
        79.578,
        47.09,
        58.9
      ],
      [
        92.715,
        92.675,
        88.727,
        91.091,
        90.784,
        125.19,
        118.48,
        83.136,
        76.778,
        79.242,
        77.312,
        77.443,
        76.48,
        72.363,
        72.168,
        68.188,
        98.105,
        93.808,
        69.722,
        66.643,
        67.347,
        66.321,
        62.628,
        118.07,
        136.19,
        132.05,
        118.55,
        62.62,
        61.676,
        58.894,
        57.73,
        57.579,
        57.98,
        53.111,
        52.983,
        51.872,
        49.435,
        49.382,
        47.476,
        45.877,
        44.803,
        43.67,
        45.458,
        44.659,
        86.98,
        85.04,
        80.314,
        92.086,
        42.706,
        40.333,
        40.06,
        40.111,
        37.612,
        55.81,
        51.002,
        36.638,
        35.379,
        34.427,
        32.611,
        32.552,
        44.655,
        43.821,
        44.593,
        41.882,
        29.328,
        28.503,
        27.966,
        38.895,
        38.757,
        26.837,
        26.278,
        26.065,
        25.902,
        25.062,
        24.96,
        24.45,
        23.333,
        45.248,
        45.977,
        47.659,
        45.12,
        22.43,
        21.323,
        21.147,
        28.933,
        29.036,
        28.144,
        26.874,
        19.262,
        18.495,
        18.301,
        17.983,
        17.356,
        17.376,
        34.734,
        33.496,
        32.835,
        33.844,
        23.494,
        22.852,
        22.393,
        22.196,
        21.71,
        21.214,
        20.598,
        20.298,
        20.15,
        19.531,
        19.519,
        19.233,
        19.081,
        18.682,
        18.599,
        18.121,
        17.365,
        17.168,
        16.675,
        16.929,
        11.612,
        11.54,
        15.921,
        15.322,
        15.254,
        14.831,
        14.956,
        14.403,
        14.572,
        14.353,
        13.86,
        13.633,
        13.375,
        13.39,
        12.798,
        12.631,
        12.508,
        12.369,
        17.069,
        17.417,
        16.886,
        16.383,
        8.168,
        7.9869,
        11.301,
        11.031,
        15.568,
        15.343,
        15.094,
        15.379,
        7.3089,
        10.063,
        9.8945,
        9.586,
        9.5627,
        9.3859,
        9.2631,
        9.1951,
        9.0536,
        8.8945,
        8.693,
        6.1307,
        6.1065,
        5.9484,
        8.3179,
        8.0301,
        5.6557,
        5.5071,
        5.3498,
        5.1687,
        5.0524,
        4.924,
        4.8494,
        4.7718,
        9.5616,
        14.751,
        14.354,
        14.827,
        7.245,
        7.1271,
        7.339,
        7.171,
        7.1392,
        7.0902,
        7.1846,
        7.1288,
        7.1027,
        7.1022,
        7.0933,
        9.9734,
        9.9634,
        7.0968,
        6.9558,
        7.0154,
        6.8537,
        6.9611,
        6.887,
        6.8663,
        6.9642,
        6.9962,
        7.0278,
        6.9631,
        6.9458,
        7.1275,
        9.7808,
        10.065,
        7.0607,
        7.0415,
        9.9949,
        10.06,
        7.1939,
        10.16,
        10.443,
        7.0361,
        7.2599,
        7.2485,
        15.15,
        15.007,
        14.371,
        14.81,
        7.2642,
        7.3401,
        10.174,
        10.585,
        7.376,
        10.382,
        10.727,
        7.5156,
        10.584,
        10.5,
        7.3689,
        7.5759,
        7.3075,
        7.3047,
        7.2167,
        6.9761,
        6.8383,
        6.947,
        6.9843,
        6.7903,
        6.5513,
        6.3687,
        6.3306,
        6.1604,
        6.0035,
        5.7592,
        5.6044,
        5.4484,
        5.4198,
        5.2314,
        5.1469,
        10.307,
        14.285,
        13.988,
        13.998,
        7.1415,
        6.9338,
        6.7545,
        9.6831,
        8.9881,
        6.643,
        6.5209,
        6.4935,
        6.1876,
        6.3724,
        6.1237,
        6.1615,
        6.0495,
        6.0026,
        5.9429,
        5.9492,
        5.9107,
        5.5876,
        5.6371,
        5.5493,
        5.5475,
        5.3657,
        5.2164,
        5.1224,
        5.2729,
        5.2097,
        4.942,
        5.2068,
        4.8991,
        4.7859,
        4.8328,
        4.7144,
        4.5249,
        4.7424,
        4.3889,
        4.2937,
        4.2262,
        4.2252,
        4.1363,
        4.0868,
        5.8023,
        5.7442,
        3.9582,
        3.999,
        3.7823,
        3.8829,
        3.7691,
        3.7319,
        3.5887,
        3.5222,
        3.5495,
        3.4714,
        3.3615,
        3.2724,
        3.2144,
        6.675,
        5.9467,
        6.4125,
        6.6139,
        3.0862,
        3.0931,
        3.0724,
        3.0595,
        3.1933,
        3.2777,
        3.2855,
        3.4474,
        4.9364,
        5.047,
        7.6284,
        14.661,
        15.443,
        15.405,
        7.5388,
        7.9629,
        7.7555,
        8.2035,
        8.5337,
        11.445,
        12.924,
        8.2926,
        8.9664,
        9.2711,
        9.3904,
        9.2551,
        13.305,
        14.196,
        9.9784,
        14.083,
        14.619,
        10.635,
        10.888,
        12.095,
        17.544,
        19.413,
        20.334,
        20.03,
        15.75,
        16.924,
        17.613,
        16.155,
        21.658,
        18.635,
        17.959,
        16.743,
        11.154,
        9.7128,
        8.7786,
        8.0922,
        7.8191,
        7.8644,
        8.5489,
        14.476,
        15.649,
        23.129,
        25.667,
        23.711,
        24.356,
        27.188,
        23.29,
        21.092,
        18.055,
        16.085,
        14.612,
        12.049,
        9.6458,
        3.76,
        3.4198,
        2.9389,
        2.7448,
        2.8548,
        2.7018,
        2.7343,
        2.7974,
        3.9113,
        3.4498,
        2.8399,
        3.0429,
        3.0781,
        3.2098,
        3.4566,
        3.8219,
        4.3818,
        9.0126,
        8.9465,
        9.0088,
        10.469,
        5.4105,
        10.103,
        8.682,
        8.4368,
        8.1199,
        3.1914,
        2.8103,
        2.5443,
        2.6648,
        2.8763,
        3.234,
        6.8021,
        6.6855,
        6.1847,
        7.3611,
        3.7566,
        3.5943,
        3.3903,
        3.0818,
        2.7074,
        2.5474,
        2.6453,
        4.6299,
        5.0334,
        3.5766,
        3.4528,
        7.2503,
        7.2872,
        7.3587,
        8.3748,
        9.7854,
        12.103,
        14.631,
        19.432,
        20.767,
        20.415,
        14.494,
        9.9662,
        7.244,
        5.6693,
        4.4926,
        3.9622,
        2.0635,
        1.7181,
        1.5161,
        1.5412,
        1.7926,
        3.1066,
        3.5167,
        3.8769,
        4.59,
        2.2814,
        4.8277,
        4.5279,
        5.2901,
        6.7554,
        8.3263,
        11.819,
        16.07,
        15.083,
        11.988,
        8.0401,
        6.056,
        5.5039,
        2.5005,
        2.0102,
        4.397,
        4.8487,
        6.2474,
        8.5858,
        11.472,
        10.261,
        7.1169,
        4.6141,
        4.1676,
        4.6298,
        4.7432,
        4.4098,
        2.8685,
        2.2275,
        1.9891,
        1.8237,
        2.1627,
        3.5617,
        5.9716,
        7.305,
        5.4823,
        5.1755,
        6.2381,
        6.9362,
        6.9477,
        4.8491,
        2.5541,
        2.2814,
        2.2399,
        3.4758,
        4.0956,
        4.3088,
        5.8212,
        7.8552,
        7.3695,
        4.3023,
        3.1442,
        3.5819
      ]
    ]
  }
}