{
  "id": "22080003XX",
  "reaction": {
    "x4code": "(92-U-235(N,F),,SIG)",
    "target": "92-U-235",
    "process": "N,F",
    "sf4": null,
    "residual": null,
    "sf5": null,
    "sf6": "SIG",
    "sf7": null,
    "sf8": null,
    "sf9": null,
    "freetext": []
  },
  "measurement_conditions": {
    "CORRECTION": {
      "XX": {
        "0": {
          "freetext": [
            " A normalization was done in the thermal region",
            " relative to the zero fission cross-sections values",
            " proposed for the ENDF-B6 file for U235."
          ]
        }
      }
    },
    "MONIT-REF": {
      "XX": {
        "0": {
          "x4code": null,
          "freetext": [
            ""
          ]
        }
      }
    },
    "MONITOR": {
      "XX": {
        "0": {
          "x4code": [
            "(92-U-235(N,F),,SIG)"
          ],
          "freetext": [
            ""
          ]
        }
      }
    },
    "SAMPLE": {
      "XX": {
        "0": {
          "freetext": [
            ".The fissile layer were mounted back to back with the",
            " layer of 25 micro-g Li6F/cm2,in the center of a vacuum",
            " chamber. The fissile layers were evaporated homoge-",
            " neously with a thickness of 40 micro-g U235/cm2",
            " (235UF4)"
          ]
        }
      }
    }
  },
  "common_data": {
    "heads": [
      "EN-NRM",
      "MONIT",
      "MONIT-ERR"
    ],
    "units": [
      "EV",
      "B",
      "PER-CENT"
    ],
    "data": [
      [
        0.0253
      ],
      [
        584.25
      ],
      [
        0.19
      ]
    ]
  },
  "data_table": {
    "heads": [
      "EN",
      "DATA",
      "ERR-1"
    ],
    "units": [
      "EV",
      "B",
      "B"
    ],
    "data": [
      [
        0.0020256,
        0.0020502,
        0.0020882,
        0.0021404,
        0.0021945,
        0.0022507,
        0.0023091,
        0.0023698,
        0.002433,
        0.0024986,
        0.0025669,
        0.002638,
        0.0027122,
        0.0027896,
        0.0028703,
        0.0029546,
        0.0030426,
        0.0031347,
        0.0032309,
        0.0033317,
        0.0034099,
        0.003464,
        0.0035192,
        0.0035759,
        0.003664,
        0.0037387,
        0.0037696,
        0.0038009,
        0.0038324,
        0.0038807,
        0.0039464,
        0.0040138,
        0.0040828,
        0.0041537,
        0.0042264,
        0.004301,
        0.0043775,
        0.0044563,
        0.0045371,
        0.0046633,
        0.0048389,
        0.0050247,
        0.00517,
        0.005271,
        0.0053753,
        0.0054825,
        0.0055647,
        0.0056208,
        0.0056778,
        0.0057355,
        0.0058242,
        0.0059452,
        0.0060701,
        0.0061989,
        0.0064016,
        0.0066853,
        0.0068699,
        0.0069469,
        0.0070251,
        0.0071047,
        0.0072273,
        0.0073949,
        0.0075239,
        0.0076121,
        0.0077019,
        0.0077933,
        0.0078863,
        0.007981,
        0.0080775,
        0.0081758,
        0.0082757,
        0.0083775,
        0.0084813,
        0.008587,
        0.00875,
        0.0089737,
        0.0091462,
        0.0092646,
        0.0093853,
        0.0095084,
        0.009634,
        0.0097619,
        0.0098924,
        0.010026,
        0.010162,
        0.0103,
        0.010442,
        0.010586,
        0.010734,
        0.010885,
        0.011039,
        0.011196,
        0.011356,
        0.01152,
        0.011688,
        0.011859,
        0.012311,
        0.012774,
        0.01297,
        0.01317,
        0.013375,
        0.013585,
        0.0138,
        0.01402,
        0.014245,
        0.014476,
        0.014712,
        0.014954,
        0.015202,
        0.015589,
        0.016124,
        0.016992,
        0.017906,
        0.018566,
        0.019642,
        0.020781,
        0.021609,
        0.022966,
        0.024954,
        0.026152,
        0.026352,
        0.02647,
        0.026588,
        0.026708,
        0.026828,
        0.026949,
        0.027071,
        0.027636,
        0.028674,
        0.029485,
        0.030049,
        0.030932,
        0.032163,
        0.033468,
        0.034854,
        0.036329,
        0.037488,
        0.038298,
        0.039134,
        0.039998,
        0.040891,
        0.041815,
        0.04277,
        0.043758,
        0.044781,
        0.04584,
        0.046937,
        0.048074,
        0.049253,
        0.050475,
        0.051744,
        0.053061,
        0.054429,
        0.055851,
        0.057329,
        0.058867,
        0.060467,
        0.062134,
        0.06387,
        0.065681,
        0.067569,
        0.06954,
        0.072698,
        0.077203,
        0.082141,
        0.087568,
        0.093551,
        0.10017,
        0.10752,
        0.1157,
        0.12486,
        0.13515,
        0.14133,
        0.14243,
        0.14317,
        0.14392,
        0.14467,
        0.14543,
        0.14619,
        0.14696,
        0.15055,
        0.15718,
        0.16426,
        0.17182,
        0.17992,
        0.1886,
        0.19793,
        0.20797,
        0.21879,
        0.23048,
        0.24313,
        0.25685,
        0.27177,
        0.28803,
        0.30579,
        0.32525,
        0.34662,
        0.37018,
        0.39622,
        0.4251,
        0.45727,
        0.49324,
        0.53362,
        0.57917,
        0.63082,
        0.68971,
        0.75724,
        0.83521,
        0.92589,
        0.9882,
        1.0157,
        1.0444,
        1.0744,
        1.1056,
        1.1382,
        1.1723,
        1.208,
        1.2356,
        1.2474,
        1.2522,
        1.257,
        1.2619,
        1.2668,
        1.2717,
        1.2766,
        1.2994,
        1.341,
        1.3847,
        1.4306,
        1.4787,
        1.5294,
        1.5826,
        1.6388,
        1.6979,
        1.7603,
        1.8262,
        1.8959,
        1.9697,
        2.0478,
        2.1307,
        2.2188,
        2.3124,
        2.412,
        2.5183,
        2.6317,
        2.7529,
        2.8828,
        2.9853,
        3.0574,
        3.1716,
        3.3326,
        3.4379,
        3.4821,
        3.5271,
        3.573,
        3.6199,
        3.6676,
        3.7163,
        3.7659,
        3.8965,
        4.1167,
        4.356,
        4.6168,
        4.7888,
        4.8616,
        4.936,
        5.0121,
        5.1304,
        5.2937,
        5.557,
        5.8333,
        6.0316,
        6.1595,
        6.2123,
        6.2658,
        6.32,
        6.3748,
        6.4304,
        6.4868,
        6.5438,
        6.6016,
        6.6602,
        6.7196,
        6.7798,
        6.8408,
        6.9026,
        6.9652,
        7.0288,
        7.0931,
        7.1584,
        7.2246,
        7.2917,
        7.3597,
        7.4287,
        7.4987,
        7.5697,
        7.6784,
        7.8265,
        7.979,
        8.136,
        8.2563,
        8.3383,
        8.4216,
        8.5061,
        8.5918,
        8.6789,
        8.7673,
        8.8571,
        8.9482,
        9.0408,
        9.1348,
        9.2303,
        9.3273,
        9.4258,
        9.5259,
        9.6276,
        9.7839,
        9.9973,
        10.218,
        10.446,
        11.066,
        11.639,
        11.777,
        11.916,
        12.059,
        12.204,
        12.351,
        12.502,
        12.655,
        12.811,
        12.97,
        13.131,
        13.296,
        13.464,
        13.635,
        13.81,
        13.988,
        14.169,
        14.354,
        14.542,
        14.734,
        14.93,
        15.13,
        15.334,
        15.542,
        15.755,
        15.972,
        16.193,
        16.419,
        16.65,
        16.885,
        17.126,
        17.372,
        17.623,
        17.879,
        18.142,
        18.41,
        18.684,
        18.964,
        19.251,
        19.544,
        19.844,
        20.151
      ],
      [
        2278.2,
        2023.9,
        2039.0,
        2093.5,
        2069.7,
        2036.3,
        2065.6,
        1959.9,
        2006.8,
        1923.6,
        1951.8,
        1921.9,
        1846.7,
        1833.9,
        1889.3,
        1785.6,
        1746.6,
        1729.2,
        1677.1,
        1673.5,
        1650.3,
        1645.5,
        1650.1,
        1607.0,
        1602.1,
        1552.1,
        1445.6,
        1516.1,
        1581.3,
        1522.8,
        1499.3,
        1532.1,
        1501.3,
        1482.2,
        1466.1,
        1461.8,
        1447.2,
        1417.7,
        1449.6,
        1406.9,
        1383.6,
        1317.7,
        1321.0,
        1311.1,
        1315.1,
        1311.9,
        1302.4,
        1269.1,
        1250.0,
        1257.0,
        1289.7,
        1243.7,
        1216.3,
        1205.3,
        1208.2,
        1167.8,
        1158.8,
        1134.1,
        1117.2,
        1131.2,
        1125.4,
        1116.7,
        1110.1,
        1084.6,
        1110.1,
        1121.3,
        1103.4,
        1097.8,
        1080.0,
        1083.3,
        1058.1,
        1046.2,
        1050.7,
        1031.7,
        1030.4,
        1011.4,
        1014.4,
        977.46,
        1012.2,
        980.8,
        980.26,
        964.18,
        956.06,
        948.29,
        933.91,
        932.12,
        939.66,
        928.78,
        930.58,
        905.3,
        907.46,
        906.24,
        884.61,
        881.75,
        891.52,
        878.64,
        868.13,
        862.71,
        837.9,
        832.78,
        826.21,
        816.13,
        811.24,
        794.53,
        799.16,
        792.44,
        768.4,
        772.23,
        754.99,
        752.71,
        738.1,
        720.28,
        700.55,
        693.48,
        674.89,
        649.86,
        636.91,
        618.02,
        591.75,
        580.64,
        576.41,
        566.75,
        562.29,
        576.58,
        565.63,
        566.5,
        562.02,
        554.1,
        546.56,
        530.48,
        525.15,
        523.48,
        507.46,
        492.17,
        484.03,
        481.13,
        461.15,
        461.26,
        453.49,
        443.0,
        438.53,
        434.04,
        427.71,
        432.38,
        426.43,
        414.6,
        417.86,
        406.63,
        401.08,
        392.88,
        384.75,
        383.14,
        378.59,
        357.77,
        361.81,
        355.76,
        353.4,
        347.68,
        342.09,
        336.06,
        328.32,
        316.1,
        309.77,
        302.5,
        288.6,
        272.65,
        264.17,
        251.62,
        243.01,
        230.94,
        223.34,
        209.35,
        197.05,
        210.36,
        211.86,
        209.27,
        201.76,
        197.72,
        192.21,
        194.7,
        195.28,
        195.82,
        186.17,
        185.05,
        182.06,
        175.58,
        175.16,
        174.78,
        174.11,
        176.89,
        184.43,
        189.44,
        190.16,
        193.81,
        187.18,
        171.43,
        153.43,
        131.33,
        119.73,
        103.25,
        94.429,
        84.436,
        76.657,
        69.838,
        63.157,
        58.939,
        56.857,
        53.236,
        57.723,
        60.9,
        70.362,
        80.908,
        89.193,
        97.401,
        108.43,
        90.35,
        60.758,
        41.444,
        42.077,
        35.203,
        27.712,
        23.871,
        35.156,
        34.361,
        21.886,
        23.761,
        23.43,
        19.309,
        17.048,
        16.098,
        15.176,
        15.714,
        14.921,
        14.654,
        13.314,
        14.878,
        13.299,
        16.193,
        24.852,
        13.998,
        10.317,
        11.757,
        9.6582,
        10.163,
        8.3696,
        8.5944,
        18.087,
        20.843,
        27.912,
        45.109,
        21.845,
        18.434,
        24.876,
        36.43,
        55.468,
        81.623,
        75.59,
        36.181,
        14.582,
        2.9937,
        2.6256,
        2.5842,
        2.7001,
        8.2266,
        17.232,
        16.929,
        7.644,
        4.5369,
        8.736,
        15.382,
        15.798,
        22.628,
        37.334,
        42.619,
        52.605,
        64.011,
        88.169,
        108.24,
        95.435,
        48.399,
        19.382,
        9.0814,
        5.8575,
        5.0334,
        6.7276,
        9.141,
        17.41,
        26.024,
        54.568,
        66.197,
        46.98,
        20.95,
        5.9083,
        5.2283,
        5.5826,
        1.8798,
        3.3952,
        2.987,
        2.7499,
        6.731,
        9.4126,
        13.756,
        20.143,
        36.893,
        76.85,
        165.52,
        365.93,
        514.63,
        425.37,
        219.66,
        115.01,
        80.486,
        88.268,
        83.434,
        60.423,
        39.368,
        32.686,
        22.146,
        27.024,
        20.95,
        13.783,
        37.607,
        45.944,
        32.73,
        22.306,
        44.105,
        123.63,
        218.53,
        160.68,
        40.536,
        24.217,
        24.093,
        20.247,
        28.743,
        29.709,
        51.005,
        68.827,
        78.485,
        64.596,
        42.257,
        28.944,
        13.334,
        13.002,
        23.306,
        40.693,
        28.124,
        16.886,
        34.842,
        33.511,
        29.218,
        44.049,
        26.825,
        9.831,
        8.2608,
        18.938,
        45.993,
        47.26,
        27.672,
        52.558,
        189.58,
        303.16,
        159.36,
        26.915
      ],
      [
        62.52,
        56.59,
        39.31,
        38.436,
        36.927,
        35.274,
        34.278,
        31.828,
        31.255,
        30.253,
        30.454,
        29.211,
        27.401,
        26.502,
        25.976,
        24.251,
        23.0,
        21.869,
        20.679,
        20.344,
        28.335,
        27.608,
        27.029,
        26.048,
        18.003,
        35.549,
        33.521,
        33.803,
        33.716,
        23.094,
        22.076,
        21.831,
        21.083,
        20.411,
        19.788,
        19.438,
        18.924,
        18.227,
        18.042,
        12.202,
        11.87,
        11.348,
        15.567,
        15.159,
        14.831,
        14.47,
        20.019,
        19.414,
        19.114,
        18.825,
        13.308,
        12.75,
        12.282,
        12.013,
        8.35,
        7.9758,
        15.527,
        15.166,
        14.847,
        14.719,
        10.118,
        9.8394,
        13.602,
        13.219,
        13.206,
        13.106,
        12.841,
        12.627,
        12.359,
        12.208,
        11.862,
        11.576,
        11.476,
        11.189,
        7.7591,
        7.5103,
        10.547,
        10.345,
        10.509,
        10.121,
        10.036,
        9.8398,
        9.6863,
        9.4778,
        9.272,
        9.1197,
        9.0127,
        8.8594,
        8.7367,
        8.4959,
        8.3621,
        8.255,
        8.0049,
        7.8921,
        7.858,
        7.7068,
        3.7405,
        7.4076,
        7.1999,
        7.0687,
        6.9519,
        6.8083,
        6.7044,
        6.5123,
        6.4554,
        6.3264,
        6.1477,
        6.1022,
        5.9585,
        4.1411,
        4.0327,
        2.7703,
        3.8255,
        3.7254,
        2.5273,
        3.4146,
        3.3183,
        2.2691,
        2.1753,
        6.0361,
        9.4274,
        9.3142,
        9.2449,
        9.4235,
        9.2868,
        9.2381,
        9.2749,
        3.2445,
        3.2177,
        4.4996,
        4.5022,
        3.2126,
        3.1788,
        3.1425,
        3.1272,
        3.1355,
        4.3606,
        4.3937,
        4.379,
        4.3537,
        4.3542,
        4.364,
        4.3784,
        4.4515,
        4.4701,
        4.4345,
        4.5086,
        4.486,
        4.4956,
        4.4934,
        4.4798,
        4.5372,
        4.561,
        4.46,
        4.5572,
        4.5487,
        4.5915,
        4.5882,
        4.5635,
        4.575,
        4.5179,
        4.4662,
        3.1274,
        3.0849,
        2.9896,
        2.8838,
        2.8059,
        2.6738,
        2.5652,
        2.4177,
        2.3073,
        2.1533,
        5.8089,
        8.4276,
        8.5607,
        8.384,
        8.1922,
        8.1206,
        7.9229,
        7.9563,
        2.7924,
        2.7421,
        2.6144,
        2.5573,
        2.4901,
        2.4015,
        2.3601,
        2.311,
        2.2811,
        2.2653,
        2.2873,
        2.2862,
        2.253,
        2.2437,
        2.1621,
        2.0116,
        1.8573,
        1.6719,
        1.5622,
        1.4197,
        1.3389,
        1.2433,
        1.161,
        1.0813,
        1.0015,
        0.93701,
        0.90204,
        0.84763,
        0.85748,
        1.7328,
        1.8519,
        2.0046,
        2.0846,
        2.1615,
        2.3054,
        2.0573,
        1.6526,
        1.8836,
        3.8649,
        3.4313,
        3.0214,
        2.7954,
        3.4427,
        3.4596,
        2.6879,
        0.99147,
        0.97861,
        0.87361,
        0.81096,
        0.77945,
        0.74755,
        0.75604,
        0.7285,
        0.71729,
        0.67128,
        0.70545,
        0.6597,
        0.71832,
        0.89026,
        0.65804,
        0.55388,
        0.58537,
        0.52177,
        0.53455,
        0.47677,
        0.47583,
        0.6863,
        1.0215,
        1.1833,
        1.0771,
        0.72953,
        1.3173,
        1.531,
        1.8661,
        2.3546,
        2.91,
        2.7882,
        1.8351,
        1.1485,
        0.25416,
        0.23734,
        0.23052,
        0.23255,
        0.79648,
        1.1548,
        1.157,
        0.75782,
        0.41064,
        0.56452,
        0.52689,
        0.74107,
        0.88419,
        2.3068,
        2.4767,
        2.7872,
        3.1616,
        3.7982,
        4.2742,
        3.9234,
        2.666,
        1.5665,
        1.0753,
        0.86837,
        0.79894,
        0.91435,
        1.0761,
        1.4948,
        1.8177,
        2.7512,
        3.0495,
        2.5075,
        1.6006,
        0.85121,
        0.78527,
        0.82121,
        0.48503,
        0.44813,
        0.41644,
        0.4035,
        0.61725,
        1.0388,
        1.2317,
        1.5056,
        2.1044,
        3.2375,
        5.1682,
        9.3967,
        12.209,
        10.499,
        6.3145,
        4.0675,
        3.1661,
        3.4092,
        3.2808,
        2.6992,
        2.0911,
        1.3357,
        1.0741,
        1.1857,
        1.0298,
        0.40789,
        1.9629,
        2.1826,
        1.7947,
        1.446,
        2.1137,
        3.9817,
        5.9224,
        4.8404,
        1.9686,
        1.4878,
        1.4804,
        1.3369,
        1.5876,
        1.645,
        2.1906,
        2.6507,
        2.8825,
        2.5614,
        1.9886,
        1.5569,
        1.0407,
        1.0233,
        1.3707,
        1.9132,
        1.5317,
        1.1385,
        1.7142,
        1.6765,
        1.5393,
        1.937,
        1.4519,
        0.85256,
        0.7714,
        1.1935,
        1.9579,
        1.9745,
        1.4738,
        2.1576,
        5.1796,
        7.218,
        4.4239,
        1.3913
      ]
    ]
  }
}