{
  "id": "10035006XX",
  "reaction": {
    "x4code": "(94-PU-239(N,G)94-PU-240,,SIG)",
    "target": "94-PU-239",
    "process": "N,G",
    "sf4": "94-PU-240",
    "residual": null,
    "sf5": null,
    "sf6": "SIG",
    "sf7": null,
    "sf8": null,
    "sf9": null,
    "freetext": []
  },
  "measurement_conditions": {
    "ERR-ANALYS": {
      "XX": {
        "0": {
          "freetext": [
            "See Nuc.Sci.Eng.45, 25 (1971) for complete discussion",
            " of errors."
          ]
        }
      }
    },
    "MONITOR": {
      "XX": {
        "0": {
          "x4code": [
            "(94-PU-239(N,G)94-PU-240,,SIG)"
          ],
          "freetext": [
            ""
          ]
        }
      }
    }
  },
  "common_data": {
    "heads": [
      "EN-NRM",
      "MONIT",
      "MONIT-ERR"
    ],
    "units": [
      "EV",
      "B",
      "B"
    ],
    "data": [
      [
        0.0253
      ],
      [
        271.3
      ],
      [
        2.6
      ]
    ]
  },
  "data_table": {
    "heads": [
      "EN",
      "DATA"
    ],
    "units": [
      "EV",
      "B"
    ],
    "data": [
      [
        0.018955,
        0.019187,
        0.019424,
        0.019664,
        0.01991,
        0.02016,
        0.020415,
        0.020674,
        0.020939,
        0.021209,
        0.021484,
        0.021764,
        0.02205,
        0.022341,
        0.022639,
        0.022942,
        0.023251,
        0.023567,
        0.023889,
        0.024218,
        0.024554,
        0.024897,
        0.025247,
        0.025604,
        0.025969,
        0.026342,
        0.026723,
        0.027113,
        0.027511,
        0.027918,
        0.028333,
        0.028759,
        0.029193,
        0.029638,
        0.030093,
        0.030559,
        0.031035,
        0.031523,
        0.032022,
        0.032534,
        0.033057,
        0.033594,
        0.034143,
        0.034706,
        0.035284,
        0.035875,
        0.036482,
        0.037104,
        0.037742,
        0.038397,
        0.039069,
        0.039759,
        0.040468,
        0.041195,
        0.041942,
        0.04271,
        0.043499,
        0.04431,
        0.045144,
        0.046002,
        0.046884,
        0.047792,
        0.048727,
        0.049689,
        0.05068,
        0.051701,
        0.052754,
        0.053838,
        0.054957,
        0.056111,
        0.057301,
        0.05853,
        0.059799,
        0.061109,
        0.062463,
        0.063863,
        0.06531,
        0.066806,
        0.068355,
        0.069959,
        0.071619,
        0.073339,
        0.075122,
        0.076971,
        0.078889,
        0.080879,
        0.082946,
        0.085093,
        0.087325,
        0.089645,
        0.092059,
        0.094572,
        0.09719,
        0.09871,
        0.099053,
        0.099397,
        0.099743,
        0.10009,
        0.10044,
        0.10079,
        0.10115,
        0.1015,
        0.10186,
        0.10222,
        0.10258,
        0.10294,
        0.10331,
        0.10367,
        0.10404,
        0.10441,
        0.10479,
        0.10516,
        0.10554,
        0.10592,
        0.1063,
        0.10668,
        0.10707,
        0.10745,
        0.10784,
        0.10823,
        0.10863,
        0.10902,
        0.10942,
        0.10982,
        0.11022,
        0.11063,
        0.11104,
        0.11144,
        0.11186,
        0.11227,
        0.11268,
        0.1131,
        0.11352,
        0.11395,
        0.11437,
        0.1148,
        0.11523,
        0.11566,
        0.11609,
        0.11653,
        0.11697,
        0.11741,
        0.11786,
        0.11831,
        0.11876,
        0.11921,
        0.11966,
        0.12012,
        0.12058,
        0.12104,
        0.12151,
        0.12198,
        0.12245,
        0.12292,
        0.1234,
        0.12388,
        0.12436,
        0.12484,
        0.12533,
        0.12582,
        0.12631,
        0.12681,
        0.12731,
        0.12781,
        0.12832,
        0.12883,
        0.12934,
        0.12985,
        0.13037,
        0.13089,
        0.13141,
        0.13194,
        0.13247,
        0.133,
        0.13354,
        0.13408,
        0.13462,
        0.13517,
        0.13571,
        0.13627,
        0.13682,
        0.13738,
        0.13795,
        0.13851,
        0.13908,
        0.13966,
        0.14023,
        0.14081,
        0.1414,
        0.14198,
        0.14258,
        0.14317,
        0.14377,
        0.14437,
        0.14498,
        0.14559,
        0.1462,
        0.14682,
        0.14744,
        0.14807,
        0.1487,
        0.14933,
        0.14997,
        0.15061,
        0.15126,
        0.15191,
        0.15257,
        0.15322,
        0.15389,
        0.15456,
        0.15523,
        0.1559,
        0.15658,
        0.15727,
        0.15796,
        0.15865,
        0.15935,
        0.16005,
        0.16076,
        0.16148,
        0.16219,
        0.16292,
        0.16364,
        0.16437,
        0.16511,
        0.16585,
        0.1666,
        0.16735,
        0.16811,
        0.16887,
        0.16964,
        0.17041,
        0.17119,
        0.17197,
        0.17276,
        0.17356,
        0.17436,
        0.17516,
        0.17597,
        0.17679,
        0.17761,
        0.17844,
        0.17927,
        0.18011,
        0.18096,
        0.18181,
        0.18266,
        0.18353,
        0.1844,
        0.18527,
        0.18616,
        0.18704,
        0.18794,
        0.18884,
        0.18975,
        0.19066,
        0.19158,
        0.19251,
        0.19344,
        0.19439,
        0.19533,
        0.19629,
        0.19725,
        0.19822,
        0.1992,
        0.20018,
        0.20117,
        0.20217,
        0.20317,
        0.20419,
        0.20521,
        0.20624,
        0.20727,
        0.20832,
        0.20937,
        0.21043,
        0.2115,
        0.21257,
        0.21366,
        0.21475,
        0.21585,
        0.21696,
        0.21808,
        0.2192,
        0.22034,
        0.22148,
        0.22264,
        0.2238,
        0.22497,
        0.22615,
        0.22734,
        0.22854,
        0.22975,
        0.23097,
        0.2322,
        0.23343,
        0.23468,
        0.23594,
        0.23721,
        0.23849,
        0.23977,
        0.24107,
        0.24238,
        0.2437,
        0.24504,
        0.24638,
        0.24773,
        0.2491,
        0.25047,
        0.25186,
        0.25326,
        0.25467,
        0.25609,
        0.25752,
        0.25897,
        0.26043,
        0.2619,
        0.26338,
        0.26488,
        0.26639,
        0.26791,
        0.26945,
        0.27099,
        0.27256,
        0.27413,
        0.27572,
        0.27732,
        0.27894,
        0.28057,
        0.28221,
        0.28387,
        0.28555,
        0.28724,
        0.28894,
        0.29066,
        0.29239,
        0.29415,
        0.29591,
        0.29769,
        0.29949,
        0.30131,
        0.30314,
        0.30498,
        0.30685,
        0.30873,
        0.31063,
        0.31255,
        0.31448,
        0.31644,
        0.31841,
        0.3204,
        0.3224,
        0.32443,
        0.32648,
        0.32854,
        0.33063,
        0.33273,
        0.33486,
        0.337,
        0.33917,
        0.34136,
        0.34357,
        0.3458,
        0.34805,
        0.35032,
        0.35262,
        0.35494,
        0.35728,
        0.35965,
        0.36203,
        0.36445,
        0.36688,
        0.36935,
        0.37183,
        0.37434,
        0.37688,
        0.37944,
        0.38203,
        0.38465,
        0.38729,
        0.38996,
        0.39266,
        0.39539,
        0.39814,
        0.40092,
        0.40374,
        0.40658,
        0.40945,
        0.41235,
        0.41529,
        0.41825,
        0.42125,
        0.42428,
        0.42734,
        0.43044,
        0.43357,
        0.43673,
        0.43993,
        0.44316,
        0.44643,
        0.44974,
        0.45308,
        0.45646,
        0.45988,
        0.46333,
        0.46683,
        0.47036,
        0.47394,
        0.47755,
        0.48121,
        0.48491,
        0.48866,
        0.49244,
        0.49627,
        0.50015,
        0.50407,
        0.50804,
        0.51205,
        0.51611,
        0.52022,
        0.52438,
        0.5286,
        0.53286,
        0.53717,
        0.54153,
        0.54595,
        0.55043,
        0.55495,
        0.55954,
        0.56418,
        0.56888,
        0.57364,
        0.57846,
        0.58334,
        0.58828,
        0.59328,
        0.59835,
        0.60348,
        0.60868,
        0.61395,
        0.61929,
        0.6247,
        0.63017,
        0.63572,
        0.64135,
        0.64704,
        0.65282,
        0.65867,
        0.6646,
        0.67061,
        0.67671,
        0.68288,
        0.68915,
        0.69549,
        0.70193,
        0.70846,
        0.71508,
        0.72179,
        0.72859,
        0.7355,
        0.7425,
        0.7496,
        0.7568,
        0.76411,
        0.77153,
        0.77905,
        0.78668,
        0.79443,
        0.80229,
        0.81027,
        0.81837,
        0.82659,
        0.83493,
        0.84341,
        0.85201,
        0.86074,
        0.86961,
        0.87862,
        0.88777,
        0.89706,
        0.90649,
        0.91608,
        0.92582,
        0.93572,
        0.94577,
        0.95599,
        0.96638,
        0.97693,
        0.98766,
        0.99446,
        0.9972,
        0.99995,
        1.003,
        1.005,
        1.008,
        1.011,
        1.014,
        1.017,
        1.02,
        1.022,
        1.025,
        1.028,
        1.031,
        1.034,
        1.037,
        1.04,
        1.043,
        1.046,
        1.048,
        1.051,
        1.054,
        1.057,
        1.06,
        1.063,
        1.066,
        1.069,
        1.073,
        1.076,
        1.079,
        1.082,
        1.085,
        1.088,
        1.091,
        1.094,
        1.097,
        1.101,
        1.104,
        1.107,
        1.11,
        1.113,
        1.117,
        1.12,
        1.123,
        1.127,
        1.13,
        1.133,
        1.136,
        1.14,
        1.143,
        1.147,
        1.15,
        1.153,
        1.157,
        1.16,
        1.164,
        1.167,
        1.171,
        1.174,
        1.178,
        1.181,
        1.185,
        1.188,
        1.192,
        1.195,
        1.199,
        1.203,
        1.206,
        1.21,
        1.214,
        1.217,
        1.221,
        1.225,
        1.229,
        1.232,
        1.236,
        1.24,
        1.244,
        1.247,
        1.251,
        1.255,
        1.259,
        1.263,
        1.267,
        1.271,
        1.275,
        1.279,
        1.283,
        1.287,
        1.291,
        1.295,
        1.299,
        1.303,
        1.307,
        1.311,
        1.315,
        1.32,
        1.324,
        1.328,
        1.332,
        1.336,
        1.341,
        1.345,
        1.349,
        1.354,
        1.358,
        1.362,
        1.367,
        1.371,
        1.376,
        1.38,
        1.385,
        1.389,
        1.394,
        1.398,
        1.403,
        1.407,
        1.412,
        1.416,
        1.421,
        1.426,
        1.431,
        1.435,
        1.44,
        1.445,
        1.45,
        1.454,
        1.459,
        1.464,
        1.469,
        1.474,
        1.479,
        1.484,
        1.489,
        1.494,
        1.499,
        1.504,
        1.509,
        1.514,
        1.519,
        1.524,
        1.53,
        1.535,
        1.54,
        1.545,
        1.551,
        1.556,
        1.561,
        1.567,
        1.572,
        1.578,
        1.583,
        1.589,
        1.594,
        1.6,
        1.605,
        1.611,
        1.617,
        1.622,
        1.628,
        1.634,
        1.64,
        1.645,
        1.651,
        1.657,
        1.663,
        1.669,
        1.675,
        1.681,
        1.687,
        1.693,
        1.699,
        1.705,
        1.711,
        1.717,
        1.724,
        1.73,
        1.736,
        1.742,
        1.749,
        1.755,
        1.762,
        1.768,
        1.775,
        1.781,
        1.788,
        1.794,
        1.801,
        1.808,
        1.814,
        1.821,
        1.828,
        1.835,
        1.842,
        1.848,
        1.855,
        1.862,
        1.869,
        1.876,
        1.884,
        1.891,
        1.898,
        1.905,
        1.912,
        1.92,
        1.927,
        1.934,
        1.942,
        1.949,
        1.957,
        1.964,
        1.972,
        1.98,
        1.987,
        1.995,
        2.003,
        2.011,
        2.019,
        2.027,
        2.035,
        2.043,
        2.051,
        2.059,
        2.067,
        2.075,
        2.083,
        2.092,
        2.1,
        2.108,
        2.117,
        2.125,
        2.134,
        2.143,
        2.151,
        2.16,
        2.169,
        2.178,
        2.186,
        2.195,
        2.204,
        2.213,
        2.223,
        2.232,
        2.241,
        2.25,
        2.259,
        2.269,
        2.278,
        2.288,
        2.297,
        2.307,
        2.317,
        2.326,
        2.336,
        2.346,
        2.356,
        2.366,
        2.376,
        2.386,
        2.396,
        2.407,
        2.417,
        2.427,
        2.438,
        2.448,
        2.459,
        2.47,
        2.48,
        2.491,
        2.502,
        2.513,
        2.524,
        2.535,
        2.546,
        2.557,
        2.569,
        2.58,
        2.592,
        2.603,
        2.615,
        2.626,
        2.638,
        2.65,
        2.662,
        2.674,
        2.686,
        2.698,
        2.71,
        2.723,
        2.735,
        2.748,
        2.76,
        2.773,
        2.786,
        2.799,
        2.812,
        2.825,
        2.838,
        2.851,
        2.864,
        2.878,
        2.891,
        2.905,
        2.918,
        2.932,
        2.946,
        2.96,
        2.974,
        2.988,
        3.003,
        3.017,
        3.032,
        6.761,
        6.786,
        6.81,
        6.835,
        6.859,
        6.884,
        6.909,
        6.934,
        6.96,
        6.985,
        7.01,
        7.036,
        7.062,
        7.088,
        7.114,
        7.14,
        7.166,
        7.193,
        7.22,
        7.246,
        7.273,
        7.3,
        7.328,
        7.355,
        7.383,
        7.41,
        7.438,
        7.466,
        7.494,
        7.523,
        7.551,
        7.58,
        7.609,
        7.638,
        7.667,
        7.696,
        7.726,
        7.755,
        7.785,
        7.815,
        7.845,
        7.876,
        7.906,
        7.937,
        7.968,
        7.999,
        8.03,
        8.062,
        8.093,
        8.125,
        8.157,
        8.189,
        8.222,
        8.254,
        8.287,
        8.32,
        8.353,
        8.386,
        8.42,
        8.454,
        8.488,
        8.522,
        8.556,
        8.591,
        8.626,
        8.661,
        8.696,
        8.731,
        8.767,
        8.803,
        8.839,
        8.875,
        8.912,
        8.949,
        8.986,
        9.023,
        9.06,
        9.098,
        9.136,
        9.174,
        9.212,
        9.251,
        9.29,
        9.329,
        9.368,
        9.408,
        9.448,
        9.488,
        9.529,
        9.569,
        9.61,
        9.651,
        9.693,
        9.734,
        9.776,
        9.819,
        9.861,
        9.904,
        9.947,
        9.99,
        10.034,
        10.078,
        10.122,
        10.167,
        10.211,
        10.257,
        10.302,
        10.348,
        10.394,
        10.44,
        10.487,
        10.534,
        10.581,
        10.628,
        10.676,
        10.725,
        10.773,
        10.822,
        10.871,
        10.921,
        10.971,
        11.021,
        11.071,
        11.122,
        11.174,
        11.225,
        11.277,
        11.33,
        11.382,
        11.435,
        11.489,
        11.543,
        11.597,
        11.651,
        11.706,
        11.762,
        11.818,
        11.874,
        11.93,
        11.987,
        12.045,
        12.102,
        12.161,
        12.219,
        12.278,
        12.338,
        12.398,
        12.458,
        12.519,
        12.58,
        12.642,
        12.704,
        12.767,
        12.83,
        12.893,
        12.957,
        13.006,
        13.038,
        13.07,
        13.103,
        13.136,
        13.169,
        13.202,
        13.235,
        13.268,
        13.301,
        13.335,
        13.368,
        13.402,
        13.436,
        13.47,
        13.504,
        13.538,
        13.573,
        13.607,
        13.642,
        13.677,
        13.712,
        13.747,
        13.782,
        13.817,
        13.853,
        13.888,
        13.924,
        13.96,
        13.996,
        14.032,
        14.068,
        14.105,
        14.141,
        14.178,
        14.215,
        14.252,
        14.289,
        14.326,
        14.363,
        14.401,
        14.439,
        14.477,
        14.515,
        14.553,
        14.591,
        14.63,
        14.668,
        14.707,
        14.746,
        14.785,
        14.824,
        14.864,
        14.903,
        14.943,
        14.983,
        15.023,
        15.063,
        15.103,
        15.144,
        15.184,
        15.225,
        15.266,
        15.307,
        15.349,
        15.39,
        15.432,
        15.474,
        15.516,
        15.558,
        15.6,
        15.643,
        15.686,
        15.728,
        15.772,
        15.815,
        15.858,
        15.902,
        15.946,
        15.99,
        16.034,
        16.078,
        16.122,
        16.167,
        16.212,
        16.257,
        16.302,
        16.348,
        16.393,
        16.439,
        16.485,
        16.531,
        16.578,
        16.624,
        16.671,
        16.718,
        16.765,
        16.813,
        16.86,
        16.908,
        16.956,
        17.004,
        17.053,
        17.101,
        17.15,
        17.199,
        17.248,
        17.298,
        17.347,
        17.397,
        17.447,
        17.498,
        17.548,
        17.599,
        17.65,
        17.701,
        17.753,
        17.804,
        17.856,
        17.908,
        17.96,
        18.013,
        18.066,
        18.119,
        18.172,
        18.226,
        18.279,
        18.333,
        18.387,
        18.442,
        18.496,
        18.551,
        18.607,
        18.662,
        18.718,
        18.774,
        18.83,
        18.886,
        18.943,
        19.0,
        19.057,
        19.114,
        19.172,
        19.23,
        19.288,
        19.347,
        19.405,
        19.464,
        19.524,
        19.583,
        19.643,
        19.703,
        19.764,
        19.824,
        19.885,
        19.946,
        20.008,
        20.07,
        20.132,
        20.194,
        20.257,
        20.32,
        20.383,
        20.446,
        20.51,
        20.574,
        20.639,
        20.704,
        20.769,
        20.834,
        20.9,
        20.966,
        21.032,
        21.099,
        21.165,
        21.233,
        21.3,
        21.368,
        21.436,
        21.505,
        21.574,
        21.643,
        21.712,
        21.782,
        21.852,
        21.923,
        21.994,
        22.065,
        22.137,
        22.209,
        22.281,
        22.353,
        22.426,
        22.5,
        22.573,
        22.647,
        22.722,
        22.797,
        22.872,
        22.947,
        23.023,
        23.1,
        23.176,
        23.253,
        23.331,
        23.409,
        23.487,
        23.565,
        23.644,
        23.724,
        23.804,
        23.884,
        23.964,
        24.045,
        24.127,
        24.209,
        24.291,
        24.374,
        24.457,
        24.54,
        24.624,
        24.708,
        24.793,
        24.879,
        24.964,
        25.05,
        25.137,
        25.224,
        25.312,
        25.399,
        25.488,
        25.577,
        25.666,
        25.756,
        25.846,
        25.937,
        26.028,
        26.12,
        26.212,
        26.305,
        26.398,
        26.492,
        26.586,
        26.68,
        26.776,
        26.871,
        26.967,
        27.064,
        27.161,
        27.259,
        27.357,
        27.456,
        27.556,
        27.656,
        27.756,
        27.857,
        27.959,
        28.061,
        28.163,
        28.267,
        28.37,
        28.475,
        28.58,
        28.685,
        28.791,
        28.898,
        29.005,
        29.113,
        29.222,
        29.331,
        29.441,
        29.551,
        29.662,
        29.774,
        29.886,
        29.999,
        30.112,
        30.226,
        30.341,
        30.456,
        30.573,
        30.689,
        30.807,
        30.925,
        31.044,
        31.163,
        31.283,
        31.404,
        31.526,
        31.648,
        31.771,
        31.895,
        32.019,
        32.144,
        32.27,
        32.397,
        32.524,
        32.653,
        32.781,
        32.911,
        33.042,
        33.173,
        33.305,
        33.438,
        33.571,
        33.705,
        33.841,
        33.977,
        34.114,
        34.251,
        34.39,
        34.529,
        34.669,
        34.81,
        34.952,
        35.095,
        35.239,
        35.383,
        35.528,
        35.675,
        35.822,
        35.97,
        36.119,
        36.269,
        36.42,
        36.572,
        36.725,
        36.879,
        37.033,
        37.189,
        37.346,
        37.504,
        37.662,
        37.822,
        37.983,
        38.144,
        38.307,
        38.471,
        38.636,
        38.802,
        38.969,
        39.137,
        39.306,
        39.477,
        39.648,
        39.82,
        39.994,
        40.169,
        40.345,
        40.522,
        40.7,
        40.88,
        41.06,
        41.242,
        41.425,
        41.609,
        41.795,
        41.982,
        42.17,
        42.359
      ],
      [
        292.2,
        284.81,
        293.36,
        306.01,
        296.36,
        301.54,
        275.39,
        263.59,
        317.07,
        283.11,
        320.75,
        266.26,
        294.14,
        290.9,
        282.97,
        277.65,
        278.0,
        247.74,
        282.73,
        273.48,
        268.38,
        268.6,
        276.09,
        279.67,
        285.82,
        258.54,
        265.92,
        271.87,
        268.89,
        263.86,
        257.99,
        271.43,
        247.32,
        259.37,
        251.77,
        241.85,
        251.78,
        251.92,
        252.76,
        244.23,
        253.9,
        246.52,
        251.08,
        236.48,
        249.39,
        241.77,
        241.05,
        239.11,
        236.42,
        242.68,
        241.36,
        237.89,
        236.05,
        237.1,
        231.57,
        229.66,
        230.38,
        229.26,
        236.26,
        227.75,
        233.17,
        230.93,
        228.47,
        227.16,
        226.25,
        229.78,
        224.15,
        225.93,
        226.08,
        228.66,
        225.16,
        230.15,
        224.73,
        228.05,
        223.9,
        223.84,
        222.4,
        220.97,
        221.94,
        222.88,
        224.56,
        225.88,
        226.22,
        225.54,
        225.68,
        228.25,
        228.16,
        229.04,
        230.17,
        231.46,
        233.98,
        233.04,
        238.61,
        236.56,
        241.04,
        238.44,
        236.51,
        233.76,
        239.85,
        229.38,
        238.77,
        241.17,
        257.1,
        239.51,
        243.22,
        238.91,
        236.33,
        246.43,
        239.58,
        252.74,
        241.89,
        252.26,
        247.12,
        258.42,
        250.89,
        244.7,
        236.92,
        245.95,
        251.36,
        246.22,
        250.03,
        262.34,
        243.31,
        244.37,
        250.62,
        243.48,
        254.08,
        257.95,
        252.55,
        249.86,
        249.74,
        251.19,
        251.29,
        254.2,
        250.35,
        244.63,
        268.83,
        269.03,
        267.09,
        265.93,
        253.37,
        250.36,
        263.32,
        258.37,
        263.23,
        250.91,
        260.44,
        265.37,
        265.95,
        268.36,
        260.18,
        269.41,
        262.19,
        270.54,
        267.01,
        269.31,
        264.41,
        275.25,
        262.56,
        277.64,
        269.7,
        277.08,
        276.4,
        280.02,
        278.23,
        270.42,
        278.61,
        278.56,
        277.88,
        275.36,
        281.27,
        289.3,
        284.74,
        293.63,
        290.04,
        286.04,
        288.97,
        282.5,
        285.12,
        287.95,
        300.78,
        294.58,
        298.55,
        293.71,
        294.29,
        297.23,
        294.96,
        294.56,
        296.54,
        306.77,
        312.08,
        303.42,
        312.16,
        309.55,
        311.15,
        319.55,
        315.36,
        307.57,
        323.36,
        330.14,
        315.08,
        323.45,
        320.92,
        332.92,
        325.84,
        320.56,
        337.34,
        338.67,
        325.77,
        330.98,
        331.41,
        340.58,
        344.54,
        350.54,
        348.21,
        360.08,
        346.55,
        356.05,
        339.35,
        364.05,
        357.0,
        363.97,
        360.14,
        369.96,
        365.15,
        370.5,
        368.19,
        382.62,
        373.63,
        389.38,
        389.01,
        389.02,
        396.46,
        405.33,
        403.27,
        398.44,
        397.24,
        408.19,
        410.34,
        421.45,
        426.84,
        425.3,
        440.78,
        438.99,
        444.02,
        445.91,
        450.07,
        451.18,
        445.79,
        463.4,
        469.05,
        473.22,
        462.17,
        479.05,
        469.84,
        488.74,
        500.05,
        504.37,
        502.77,
        514.85,
        528.26,
        528.04,
        545.43,
        538.35,
        560.6,
        558.2,
        573.42,
        554.2,
        594.5,
        590.03,
        596.19,
        621.58,
        604.47,
        626.8,
        626.44,
        649.74,
        662.5,
        658.13,
        669.39,
        688.51,
        699.45,
        715.99,
        719.2,
        713.36,
        743.76,
        753.06,
        787.22,
        816.31,
        817.29,
        830.7,
        837.52,
        857.04,
        880.85,
        917.91,
        915.1,
        932.44,
        956.64,
        953.77,
        1005.0,
        1016.1,
        1044.2,
        1054.1,
        1093.0,
        1119.7,
        1159.2,
        1176.2,
        1213.6,
        1200.5,
        1258.0,
        1293.4,
        1339.5,
        1374.6,
        1398.6,
        1445.6,
        1482.9,
        1521.8,
        1558.0,
        1602.7,
        1622.8,
        1677.0,
        1727.3,
        1766.2,
        1794.4,
        1847.3,
        1864.0,
        1925.9,
        1990.0,
        2012.5,
        2026.3,
        2081.1,
        2078.7,
        2092.6,
        2150.9,
        2149.5,
        2189.5,
        2187.5,
        2193.4,
        2172.9,
        2206.1,
        2190.0,
        2191.6,
        2184.8,
        2120.9,
        2094.0,
        2067.4,
        1997.8,
        1965.9,
        1965.7,
        1891.0,
        1844.5,
        1775.1,
        1730.2,
        1675.7,
        1564.5,
        1552.6,
        1512.9,
        1423.1,
        1387.3,
        1306.9,
        1231.0,
        1208.4,
        1150.6,
        1091.5,
        1045.9,
        989.01,
        966.2,
        904.04,
        870.37,
        826.3,
        775.51,
        722.37,
        704.68,
        684.46,
        628.44,
        611.45,
        588.32,
        553.0,
        516.01,
        502.97,
        471.15,
        450.07,
        439.2,
        412.96,
        392.77,
        377.49,
        354.65,
        339.48,
        316.16,
        313.2,
        302.62,
        288.17,
        269.58,
        251.9,
        253.29,
        234.44,
        219.86,
        213.84,
        209.6,
        191.23,
        197.37,
        184.8,
        173.54,
        175.98,
        163.8,
        149.99,
        148.06,
        146.2,
        137.72,
        133.91,
        118.24,
        123.2,
        113.11,
        116.3,
        105.14,
        101.21,
        103.19,
        94.79,
        97.48,
        79.9,
        90.61,
        75.78,
        80.85,
        75.64,
        69.96,
        73.74,
        69.38,
        68.02,
        67.51,
        59.56,
        60.5,
        56.92,
        55.74,
        56.13,
        54.48,
        48.02,
        49.55,
        48.76,
        45.45,
        44.46,
        40.55,
        38.57,
        37.3,
        41.55,
        36.32,
        36.28,
        34.69,
        35.45,
        34.94,
        31.72,
        33.45,
        35.47,
        31.42,
        30.52,
        27.13,
        25.89,
        23.47,
        29.18,
        25.72,
        23.13,
        22.42,
        26.01,
        24.0,
        27.57,
        23.91,
        19.4,
        21.04,
        20.34,
        21.24,
        25.09,
        24.47,
        24.38,
        25.18,
        22.09,
        25.85,
        27.78,
        22.95,
        22.51,
        21.56,
        24.59,
        21.15,
        28.17,
        30.14,
        34.51,
        37.05,
        40.08,
        45.21,
        47.22,
        61.57,
        88.68,
        105.3,
        101.08,
        120.7,
        133.36,
        141.87,
        149.65,
        171.29,
        197.34,
        215.94,
        240.19,
        274.75,
        305.44,
        333.55,
        386.16,
        452.25,
        513.99,
        579.96,
        634.9,
        711.7,
        774.09,
        849.38,
        901.26,
        937.67,
        946.23,
        947.65,
        910.51,
        891.96,
        829.04,
        769.74,
        720.92,
        653.94,
        593.37,
        524.4,
        474.24,
        404.98,
        360.19,
        306.34,
        267.76,
        235.04,
        214.64,
        192.01,
        172.51,
        147.83,
        139.1,
        120.53,
        103.51,
        96.11,
        90.39,
        89.16,
        74.78,
        62.15,
        65.94,
        60.37,
        61.88,
        55.45,
        48.42,
        50.46,
        42.5,
        41.21,
        44.86,
        38.28,
        33.53,
        28.78,
        36.8,
        28.59,
        27.38,
        27.78,
        32.46,
        32.5,
        22.3,
        33.92,
        25.0,
        19.15,
        19.23,
        17.74,
        21.72,
        16.28,
        18.69,
        20.53,
        16.3,
        18.71,
        16.7,
        23.53,
        13.77,
        17.23,
        17.84,
        14.86,
        14.55,
        15.61,
        15.7,
        11.4,
        14.34,
        15.86,
        8.85,
        17.14,
        12.2,
        12.69,
        9.98,
        9.32,
        15.36,
        8.09,
        8.84,
        12.0,
        6.85,
        3.26,
        8.01,
        9.51,
        11.28,
        14.19,
        1.91,
        9.67,
        11.4,
        7.91,
        6.79,
        9.6,
        4.05,
        8.67,
        4.74,
        0.46,
        3.41,
        2.6,
        4.39,
        0.28,
        12.42,
        7.57,
        -0.02,
        11.89,
        2.82,
        14.13,
        9.39,
        6.94,
        4.2,
        2.66,
        9.4,
        4.36,
        2.21,
        6.09,
        10.29,
        8.63,
        5.5,
        4.63,
        3.01,
        2.69,
        7.89,
        0.5,
        4.39,
        6.24,
        10.64,
        4.89,
        6.11,
        4.69,
        5.53,
        4.08,
        6.72,
        2.56,
        10.05,
        7.32,
        4.66,
        3.44,
        6.16,
        8.17,
        0.22,
        5.17,
        4.81,
        1.08,
        12.33,
        10.15,
        4.65,
        4.32,
        0.71,
        11.32,
        1.3,
        4.88,
        1.32,
        3.19,
        2.25,
        7.73,
        -0.32,
        5.16,
        10.76,
        4.54,
        -0.84,
        6.76,
        3.83,
        6.94,
        7.52,
        1.42,
        4.52,
        6.2,
        0.96,
        -0.21,
        6.67,
        0.75,
        -3.37,
        4.3,
        4.76,
        5.26,
        5.18,
        0.4,
        2.67,
        7.89,
        1.44,
        1.64,
        1.55,
        6.38,
        1.88,
        -1.45,
        3.05,
        -0.65,
        0.88,
        2.2,
        -2.95,
        5.05,
        -0.79,
        3.07,
        1.69,
        -5.9,
        0.19,
        6.38,
        1.41,
        4.91,
        2.98,
        2.05,
        0.99,
        -1.16,
        0.03,
        0.7,
        1.35,
        -0.32,
        1.08,
        0.96,
        3.6,
        3.87,
        -2.28,
        0.82,
        5.66,
        5.96,
        2.96,
        5.3,
        -0.12,
        1.2,
        3.54,
        -0.84,
        -0.89,
        0.87,
        0.83,
        2.18,
        -0.28,
        2.14,
        3.6,
        6.2,
        0.95,
        0.13,
        3.78,
        6.89,
        5.0,
        4.1,
        7.89,
        -0.6,
        2.52,
        1.65,
        1.59,
        -1.48,
        0.29,
        -0.53,
        -4.65,
        5.82,
        3.95,
        -2.95,
        0.12,
        -3.63,
        2.59,
        2.97,
        -1.08,
        5.21,
        1.27,
        0.48,
        -1.18,
        -0.15,
        1.43,
        3.12,
        1.43,
        -2.37,
        2.65,
        0.89,
        0.55,
        3.22,
        3.36,
        0.57,
        0.47,
        4.81,
        -1.57,
        1.14,
        -4.16,
        1.41,
        0.73,
        -0.53,
        3.99,
        4.87,
        0.47,
        1.62,
        1.43,
        -0.06,
        -0.42,
        -2.07,
        -0.08,
        -2.95,
        3.89,
        -4.29,
        6.1,
        1.43,
        -2.49,
        7.29,
        5.43,
        5.27,
        4.93,
        12.05,
        4.6,
        4.09,
        5.28,
        6.43,
        10.67,
        12.43,
        5.55,
        1.89,
        10.09,
        13.19,
        10.88,
        4.75,
        13.64,
        13.49,
        12.2,
        12.54,
        15.15,
        15.22,
        13.58,
        19.19,
        17.01,
        13.9,
        22.53,
        23.27,
        29.4,
        38.94,
        48.81,
        75.37,
        92.95,
        114.04,
        136.42,
        192.9,
        302.38,
        432.8,
        597.85,
        671.49,
        615.18,
        450.37,
        315.0,
        180.26,
        106.16,
        76.07,
        54.53,
        39.52,
        33.4,
        23.66,
        22.27,
        23.92,
        19.45,
        13.9,
        13.62,
        16.81,
        12.29,
        11.46,
        10.26,
        3.45,
        12.36,
        13.02,
        8.82,
        7.78,
        6.02,
        9.87,
        11.28,
        5.64,
        8.53,
        2.68,
        6.87,
        9.7,
        4.87,
        7.43,
        7.35,
        6.5,
        9.41,
        6.81,
        10.3,
        5.68,
        5.73,
        9.57,
        6.3,
        6.53,
        9.1,
        4.29,
        5.76,
        4.18,
        9.71,
        7.46,
        9.81,
        6.89,
        7.84,
        11.61,
        7.29,
        11.36,
        9.42,
        12.15,
        11.11,
        12.46,
        13.75,
        10.41,
        13.42,
        13.0,
        15.37,
        14.59,
        14.76,
        11.99,
        14.99,
        23.24,
        26.97,
        29.42,
        32.6,
        45.68,
        57.36,
        77.89,
        123.78,
        182.72,
        247.03,
        278.33,
        237.49,
        179.86,
        110.97,
        75.22,
        46.6,
        35.42,
        33.04,
        26.27,
        24.82,
        24.73,
        26.3,
        29.51,
        35.46,
        52.78,
        91.49,
        235.2,
        513.16,
        737.98,
        598.62,
        290.22,
        117.98,
        54.64,
        36.77,
        25.45,
        18.16,
        15.62,
        15.53,
        14.59,
        13.17,
        10.06,
        12.91,
        10.95,
        12.92,
        9.07,
        7.75,
        9.88,
        15.94,
        11.43,
        11.37,
        9.53,
        9.26,
        9.56,
        7.85,
        12.95,
        9.49,
        8.19,
        9.5,
        8.85,
        9.17,
        12.85,
        11.03,
        9.17,
        9.35,
        11.78,
        7.23,
        8.53,
        7.37,
        9.23,
        6.34,
        6.38,
        12.33,
        14.4,
        12.97,
        19.62,
        15.47,
        20.96,
        23.31,
        29.74,
        36.55,
        50.32,
        65.65,
        89.73,
        128.35,
        170.82,
        173.71,
        177.97,
        160.74,
        152.19,
        155.39,
        203.33,
        303.16,
        480.99,
        681.65,
        825.45,
        812.94,
        666.45,
        440.37,
        256.14,
        156.61,
        91.62,
        64.38,
        48.19,
        34.46,
        27.92,
        22.97,
        18.27,
        18.11,
        20.54,
        20.93,
        15.78,
        17.75,
        18.29,
        13.14,
        14.53,
        9.03,
        8.87,
        12.03,
        15.74,
        12.05,
        10.11,
        15.43,
        15.82,
        11.5,
        12.63,
        7.94,
        13.54,
        11.7,
        5.1,
        11.51,
        10.45,
        5.6,
        6.9,
        3.39,
        6.5,
        4.25,
        9.21,
        8.73,
        12.73,
        7.04,
        11.05,
        10.97,
        7.06,
        9.22,
        13.34,
        8.95,
        12.37,
        13.32,
        8.71,
        12.58,
        16.55,
        15.4,
        20.49,
        22.6,
        29.0,
        38.36,
        59.49,
        98.75,
        186.24,
        347.11,
        498.6,
        566.67,
        509.71,
        357.19,
        202.7,
        115.35,
        65.03,
        51.36,
        41.82,
        38.62,
        39.35,
        42.29,
        40.85,
        52.26,
        56.55,
        67.55,
        81.31,
        104.29,
        128.1,
        170.82,
        218.44,
        257.17,
        281.73,
        292.18,
        280.68,
        245.77,
        201.23,
        161.66,
        120.1,
        96.41,
        75.23,
        56.12,
        46.57,
        39.93,
        33.82,
        31.32,
        25.29,
        23.18,
        22.74,
        18.83,
        21.84,
        19.47,
        17.83,
        12.73,
        15.46,
        13.76,
        15.53,
        14.29,
        19.63,
        20.04,
        23.55,
        21.37,
        14.19,
        23.11,
        25.45,
        40.36,
        77.8,
        128.61,
        210.13,
        265.56,
        294.74,
        205.72,
        121.55,
        74.49,
        37.49,
        27.09,
        18.93,
        20.46,
        21.95,
        17.8,
        24.95,
        25.51,
        43.55,
        77.09,
        157.12,
        275.75,
        341.3,
        362.09,
        260.99,
        137.98,
        67.79,
        32.59,
        22.28,
        14.63,
        11.44,
        7.38,
        7.49,
        8.13,
        11.12,
        6.15,
        8.84,
        9.39,
        5.11,
        8.41,
        8.27,
        8.45,
        14.1,
        16.64,
        19.56,
        13.89,
        11.88,
        3.93,
        3.23,
        5.76,
        6.37,
        6.3,
        3.05,
        4.65,
        5.46,
        4.75,
        6.56,
        3.48,
        6.76,
        4.21,
        4.96,
        6.38,
        2.99,
        5.92,
        5.99,
        9.23,
        8.5,
        19.81,
        40.1,
        94.01,
        168.38,
        201.28,
        177.16,
        106.91,
        47.23,
        23.06,
        27.76,
        46.96,
        76.49,
        99.13,
        111.49,
        100.53,
        74.11,
        46.43,
        20.76,
        10.13,
        5.71,
        5.85,
        4.59,
        6.31,
        4.02,
        5.87,
        3.56,
        2.6,
        4.25,
        3.43,
        1.82,
        3.26,
        0.87,
        2.83,
        2.53,
        2.2,
        2.44,
        4.09,
        2.29,
        3.59,
        3.53,
        2.71,
        1.98,
        1.9,
        1.45,
        4.03,
        -0.35,
        3.0,
        4.74,
        2.46,
        3.1,
        4.48,
        1.33,
        2.95,
        1.94,
        3.08,
        2.33,
        4.96,
        3.9,
        8.65,
        13.13,
        14.35,
        11.15,
        2.58,
        3.64,
        1.31,
        1.98,
        3.34,
        2.66,
        3.41,
        3.17,
        4.3,
        2.53,
        0.46,
        2.4,
        2.12,
        3.5,
        2.04,
        2.4,
        2.64,
        3.14,
        7.35,
        20.72,
        37.75,
        43.78,
        39.39,
        17.09,
        5.84,
        5.83,
        2.47,
        3.19,
        4.26,
        1.88,
        2.34,
        1.52,
        4.86,
        1.5,
        3.98,
        3.35,
        4.81,
        3.08,
        13.89,
        18.17,
        19.55,
        13.32,
        5.35,
        1.78,
        0.19,
        0.44,
        0.98,
        3.64,
        5.55,
        4.91,
        6.13,
        8.77,
        13.3,
        12.62,
        23.82,
        101.85,
        299.34,
        423.93,
        422.76,
        237.74,
        66.14,
        21.35,
        11.91
      ]
    ]
  }
}