{
  "id": "10035-008-XX",
  "reaction": {
    "x4code": "(94-PU-239(N,F),,SIG)",
    "target": "94-PU-239",
    "process": "N,F",
    "sf4": null,
    "residual": null,
    "sf5": null,
    "sf6": "SIG",
    "sf7": null,
    "sf8": null,
    "sf9": null,
    "freetext": []
  },
  "measurement_conditions": {
    "ERR-ANALYS": {
      "XX": {
        "0": {
          "freetext": [
            "See Nuc.Sci.Eng.45, 25 (1971) for complete discussion",
            " of errors."
          ]
        }
      }
    },
    "MONITOR": {
      "XX": {
        "0": {
          "x4code": [
            "(94-PU-239(N,F),,SIG)"
          ],
          "freetext": [
            ""
          ]
        }
      }
    }
  },
  "common_data": {
    "heads": [
      "EN-NRM",
      "MONIT",
      "MONIT-ERR"
    ],
    "units": [
      "EV",
      "B",
      "B"
    ],
    "data": {
      "0": [
        0.0253
      ],
      "1": [
        741.6
      ],
      "2": [
        3.1
      ]
    }
  },
  "data_table": {
    "heads": [
      "EN",
      "DATA"
    ],
    "units": [
      "EV",
      "B"
    ],
    "data": {
      "0": [
        0.018955,
        0.019187,
        0.019424,
        0.019664,
        0.01991,
        0.02016,
        0.020415,
        0.020674,
        0.020939,
        0.021209,
        0.021484,
        0.021764,
        0.02205,
        0.022341,
        0.022639,
        0.022942,
        0.023251,
        0.023567,
        0.023889,
        0.024218,
        0.024554,
        0.024897,
        0.025247,
        0.025604,
        0.025969,
        0.026342,
        0.026723,
        0.027113,
        0.027511,
        0.027918,
        0.028333,
        0.028759,
        0.029193,
        0.029638,
        0.030093,
        0.030559,
        0.031035,
        0.031523,
        0.032022,
        0.032534,
        0.033057,
        0.033594,
        0.034143,
        0.034706,
        0.035284,
        0.035875,
        0.036482,
        0.037104,
        0.037742,
        0.038397,
        0.039069,
        0.039759,
        0.040468,
        0.041195,
        0.041942,
        0.04271,
        0.043499,
        0.04431,
        0.045144,
        0.046002,
        0.046884,
        0.047792,
        0.048727,
        0.049689,
        0.05068,
        0.051701,
        0.052754,
        0.053838,
        0.054957,
        0.056111,
        0.057301,
        0.05853,
        0.059799,
        0.061109,
        0.062463,
        0.063863,
        0.06531,
        0.066806,
        0.068355,
        0.069959,
        0.071619,
        0.073339,
        0.075122,
        0.076971,
        0.078889,
        0.080879,
        0.082946,
        0.085093,
        0.087325,
        0.089645,
        0.092059,
        0.094572,
        0.09719,
        0.09871,
        0.099053,
        0.099397,
        0.099743,
        0.10009,
        0.10044,
        0.10079,
        0.10115,
        0.1015,
        0.10186,
        0.10222,
        0.10258,
        0.10294,
        0.10331,
        0.10367,
        0.10404,
        0.10441,
        0.10479,
        0.10516,
        0.10554,
        0.10592,
        0.1063,
        0.10668,
        0.10707,
        0.10745,
        0.10784,
        0.10823,
        0.10863,
        0.10902,
        0.10942,
        0.10982,
        0.11022,
        0.11063,
        0.11104,
        0.11144,
        0.11186,
        0.11227,
        0.11268,
        0.1131,
        0.11352,
        0.11395,
        0.11437,
        0.1148,
        0.11523,
        0.11566,
        0.11609,
        0.11653,
        0.11697,
        0.11741,
        0.11786,
        0.11831,
        0.11876,
        0.11921,
        0.11966,
        0.12012,
        0.12058,
        0.12104,
        0.12151,
        0.12198,
        0.12245,
        0.12292,
        0.1234,
        0.12388,
        0.12436,
        0.12484,
        0.12533,
        0.12582,
        0.12631,
        0.12681,
        0.12731,
        0.12781,
        0.12832,
        0.12883,
        0.12934,
        0.12985,
        0.13037,
        0.13089,
        0.13141,
        0.13194,
        0.13247,
        0.133,
        0.13354,
        0.13408,
        0.13462,
        0.13517,
        0.13571,
        0.13627,
        0.13682,
        0.13738,
        0.13795,
        0.13851,
        0.13908,
        0.13966,
        0.14023,
        0.14081,
        0.1414,
        0.14198,
        0.14258,
        0.14317,
        0.14377,
        0.14437,
        0.14498,
        0.14559,
        0.1462,
        0.14682,
        0.14744,
        0.14807,
        0.1487,
        0.14933,
        0.14997,
        0.15061,
        0.15126,
        0.15191,
        0.15257,
        0.15322,
        0.15389,
        0.15456,
        0.15523,
        0.1559,
        0.15658,
        0.15727,
        0.15796,
        0.15865,
        0.15935,
        0.16005,
        0.16076,
        0.16148,
        0.16219,
        0.16292,
        0.16364,
        0.16437,
        0.16511,
        0.16585,
        0.1666,
        0.16735,
        0.16811,
        0.16887,
        0.16964,
        0.17041,
        0.17119,
        0.17197,
        0.17276,
        0.17356,
        0.17436,
        0.17516,
        0.17597,
        0.17679,
        0.17761,
        0.17844,
        0.17927,
        0.18011,
        0.18096,
        0.18181,
        0.18266,
        0.18353,
        0.1844,
        0.18527,
        0.18616,
        0.18704,
        0.18794,
        0.18884,
        0.18975,
        0.19066,
        0.19158,
        0.19251,
        0.19344,
        0.19439,
        0.19533,
        0.19629,
        0.19725,
        0.19822,
        0.1992,
        0.20018,
        0.20117,
        0.20217,
        0.20317,
        0.20419,
        0.20521,
        0.20624,
        0.20727,
        0.20832,
        0.20937,
        0.21043,
        0.2115,
        0.21257,
        0.21366,
        0.21475,
        0.21585,
        0.21696,
        0.21808,
        0.2192,
        0.22034,
        0.22148,
        0.22264,
        0.2238,
        0.22497,
        0.22615,
        0.22734,
        0.22854,
        0.22975,
        0.23097,
        0.2322,
        0.23343,
        0.23468,
        0.23594,
        0.23721,
        0.23849,
        0.23977,
        0.24107,
        0.24238,
        0.2437,
        0.24504,
        0.24638,
        0.24773,
        0.2491,
        0.25047,
        0.25186,
        0.25326,
        0.25467,
        0.25609,
        0.25752,
        0.25897,
        0.26043,
        0.2619,
        0.26338,
        0.26488,
        0.26639,
        0.26791,
        0.26945,
        0.27099,
        0.27256,
        0.27413,
        0.27572,
        0.27732,
        0.27894,
        0.28057,
        0.28221,
        0.28387,
        0.28555,
        0.28724,
        0.28894,
        0.29066,
        0.29239,
        0.29415,
        0.29591,
        0.29769,
        0.29949,
        0.30131,
        0.30314,
        0.30498,
        0.30685,
        0.30873,
        0.31063,
        0.31255,
        0.31448,
        0.31644,
        0.31841,
        0.3204,
        0.3224,
        0.32443,
        0.32648,
        0.32854,
        0.33063,
        0.33273,
        0.33486,
        0.337,
        0.33917,
        0.34136,
        0.34357,
        0.3458,
        0.34805,
        0.35032,
        0.35262,
        0.35494,
        0.35728,
        0.35965,
        0.36203,
        0.36445,
        0.36688,
        0.36935,
        0.37183,
        0.37434,
        0.37688,
        0.37944,
        0.38203,
        0.38465,
        0.38729,
        0.38996,
        0.39266,
        0.39539,
        0.39814,
        0.40092,
        0.40374,
        0.40658,
        0.40945,
        0.41235,
        0.41529,
        0.41825,
        0.42125,
        0.42428,
        0.42734,
        0.43044,
        0.43357,
        0.43673,
        0.43993,
        0.44316,
        0.44643,
        0.44974,
        0.45308,
        0.45646,
        0.45988,
        0.46333,
        0.46683,
        0.47036,
        0.47394,
        0.47755,
        0.48121,
        0.48491,
        0.48866,
        0.49244,
        0.49627,
        0.50015,
        0.50407,
        0.50804,
        0.51205,
        0.51611,
        0.52022,
        0.52438,
        0.5286,
        0.53286,
        0.53717,
        0.54153,
        0.54595,
        0.55043,
        0.55495,
        0.55954,
        0.56418,
        0.56888,
        0.57364,
        0.57846,
        0.58334,
        0.58828,
        0.59328,
        0.59835,
        0.60348,
        0.60868,
        0.61395,
        0.61929,
        0.6247,
        0.63017,
        0.63572,
        0.64135,
        0.64704,
        0.65282,
        0.65867,
        0.6646,
        0.67061,
        0.67671,
        0.68288,
        0.68915,
        0.69549,
        0.70193,
        0.70846,
        0.71508,
        0.72179,
        0.72859,
        0.7355,
        0.7425,
        0.7496,
        0.7568,
        0.76411,
        0.77153,
        0.77905,
        0.78668,
        0.79443,
        0.80229,
        0.81027,
        0.81837,
        0.82659,
        0.83493,
        0.84341,
        0.85201,
        0.86074,
        0.86961,
        0.87862,
        0.88777,
        0.89706,
        0.90649,
        0.91608,
        0.92582,
        0.93572,
        0.94577,
        0.95599,
        0.96638,
        0.97693,
        0.98766,
        0.99446,
        0.9972,
        0.99995,
        1.003,
        1.005,
        1.008,
        1.011,
        1.014,
        1.017,
        1.02,
        1.022,
        1.025,
        1.028,
        1.031,
        1.034,
        1.037,
        1.04,
        1.043,
        1.046,
        1.048,
        1.051,
        1.054,
        1.057,
        1.06,
        1.063,
        1.066,
        1.069,
        1.073,
        1.076,
        1.079,
        1.082,
        1.085,
        1.088,
        1.091,
        1.094,
        1.097,
        1.101,
        1.104,
        1.107,
        1.11,
        1.113,
        1.117,
        1.12,
        1.123,
        1.127,
        1.13,
        1.133,
        1.136,
        1.14,
        1.143,
        1.147,
        1.15,
        1.153,
        1.157,
        1.16,
        1.164,
        1.167,
        1.171,
        1.174,
        1.178,
        1.181,
        1.185,
        1.188,
        1.192,
        1.195,
        1.199,
        1.203,
        1.206,
        1.21,
        1.214,
        1.217,
        1.221,
        1.225,
        1.229,
        1.232,
        1.236,
        1.24,
        1.244,
        1.247,
        1.251,
        1.255,
        1.259,
        1.263,
        1.267,
        1.271,
        1.275,
        1.279,
        1.283,
        1.287,
        1.291,
        1.295,
        1.299,
        1.303,
        1.307,
        1.311,
        1.315,
        1.32,
        1.324,
        1.328,
        1.332,
        1.336,
        1.341,
        1.345,
        1.349,
        1.354,
        1.358,
        1.362,
        1.367,
        1.371,
        1.376,
        1.38,
        1.385,
        1.389,
        1.394,
        1.398,
        1.403,
        1.407,
        1.412,
        1.416,
        1.421,
        1.426,
        1.431,
        1.435,
        1.44,
        1.445,
        1.45,
        1.454,
        1.459,
        1.464,
        1.469,
        1.474,
        1.479,
        1.484,
        1.489,
        1.494,
        1.499,
        1.504,
        1.509,
        1.514,
        1.519,
        1.524,
        1.53,
        1.535,
        1.54,
        1.545,
        1.551,
        1.556,
        1.561,
        1.567,
        1.572,
        1.578,
        1.583,
        1.589,
        1.594,
        1.6,
        1.605,
        1.611,
        1.617,
        1.622,
        1.628,
        1.634,
        1.64,
        1.645,
        1.651,
        1.657,
        1.663,
        1.669,
        1.675,
        1.681,
        1.687,
        1.693,
        1.699,
        1.705,
        1.711,
        1.717,
        1.724,
        1.73,
        1.736,
        1.742,
        1.749,
        1.755,
        1.762,
        1.768,
        1.775,
        1.781,
        1.788,
        1.794,
        1.801,
        1.808,
        1.814,
        1.821,
        1.828,
        1.835,
        1.842,
        1.848,
        1.855,
        1.862,
        1.869,
        1.876,
        1.884,
        1.891,
        1.898,
        1.905,
        1.912,
        1.92,
        1.927,
        1.934,
        1.942,
        1.949,
        1.957,
        1.964,
        1.972,
        1.98,
        1.987,
        1.995,
        2.003,
        2.011,
        2.019,
        2.027,
        2.035,
        2.043,
        2.051,
        2.059,
        2.067,
        2.075,
        2.083,
        2.092,
        2.1,
        2.108,
        2.117,
        2.125,
        2.134,
        2.143,
        2.151,
        2.16,
        2.169,
        2.178,
        2.186,
        2.195,
        2.204,
        2.213,
        2.223,
        2.232,
        2.241,
        2.25,
        2.259,
        2.269,
        2.278,
        2.288,
        2.297,
        2.307,
        2.317,
        2.326,
        2.336,
        2.346,
        2.356,
        2.366,
        2.376,
        2.386,
        2.396,
        2.407,
        2.417,
        2.427,
        2.438,
        2.448,
        2.459,
        2.47,
        2.48,
        2.491,
        2.502,
        2.513,
        2.524,
        2.535,
        2.546,
        2.557,
        2.569,
        2.58,
        2.592,
        2.603,
        2.615,
        2.626,
        2.638,
        2.65,
        2.662,
        2.674,
        2.686,
        2.698,
        2.71,
        2.723,
        2.735,
        2.748,
        2.76,
        2.773,
        2.786,
        2.799,
        2.812,
        2.825,
        2.838,
        2.851,
        2.864,
        2.878,
        2.891,
        2.905,
        2.918,
        2.932,
        2.946,
        2.96,
        2.974,
        2.988,
        3.003,
        3.017,
        3.032,
        6.761,
        6.786,
        6.81,
        6.835,
        6.859,
        6.884,
        6.909,
        6.934,
        6.96,
        6.985,
        7.01,
        7.036,
        7.062,
        7.088,
        7.114,
        7.14,
        7.166,
        7.193,
        7.22,
        7.246,
        7.273,
        7.3,
        7.328,
        7.355,
        7.383,
        7.41,
        7.438,
        7.466,
        7.494,
        7.523,
        7.551,
        7.58,
        7.609,
        7.638,
        7.667,
        7.696,
        7.726,
        7.755,
        7.785,
        7.815,
        7.845,
        7.876,
        7.906,
        7.937,
        7.968,
        7.999,
        8.03,
        8.062,
        8.093,
        8.125,
        8.157,
        8.189,
        8.222,
        8.254,
        8.287,
        8.32,
        8.353,
        8.386,
        8.42,
        8.454,
        8.488,
        8.522,
        8.556,
        8.591,
        8.626,
        8.661,
        8.696,
        8.731,
        8.767,
        8.803,
        8.839,
        8.875,
        8.912,
        8.949,
        8.986,
        9.023,
        9.06,
        9.098,
        9.136,
        9.174,
        9.212,
        9.251,
        9.29,
        9.329,
        9.368,
        9.408,
        9.448,
        9.488,
        9.529,
        9.569,
        9.61,
        9.651,
        9.693,
        9.734,
        9.776,
        9.819,
        9.861,
        9.904,
        9.947,
        9.99,
        10.034,
        10.078,
        10.122,
        10.167,
        10.211,
        10.257,
        10.302,
        10.348,
        10.394,
        10.44,
        10.487,
        10.534,
        10.581,
        10.628,
        10.676,
        10.725,
        10.773,
        10.822,
        10.871,
        10.921,
        10.971,
        11.021,
        11.071,
        11.122,
        11.174,
        11.225,
        11.277,
        11.33,
        11.382,
        11.435,
        11.489,
        11.543,
        11.597,
        11.651,
        11.706,
        11.762,
        11.818,
        11.874,
        11.93,
        11.987,
        12.045,
        12.102,
        12.161,
        12.219,
        12.278,
        12.338,
        12.398,
        12.458,
        12.519,
        12.58,
        12.642,
        12.704,
        12.767,
        12.83,
        12.893,
        12.957,
        13.006,
        13.038,
        13.07,
        13.103,
        13.136,
        13.169,
        13.202,
        13.235,
        13.268,
        13.301,
        13.335,
        13.368,
        13.402,
        13.436,
        13.47,
        13.504,
        13.538,
        13.573,
        13.607,
        13.642,
        13.677,
        13.712,
        13.747,
        13.782,
        13.817,
        13.853,
        13.888,
        13.924,
        13.96,
        13.996,
        14.032,
        14.068,
        14.105,
        14.141,
        14.178,
        14.215,
        14.252,
        14.289,
        14.326,
        14.363,
        14.401,
        14.439,
        14.477,
        14.515,
        14.553,
        14.591,
        14.63,
        14.668,
        14.707,
        14.746,
        14.785,
        14.824,
        14.864,
        14.903,
        14.943,
        14.983,
        15.023,
        15.063,
        15.103,
        15.144,
        15.184,
        15.225,
        15.266,
        15.307,
        15.349,
        15.39,
        15.432,
        15.474,
        15.516,
        15.558,
        15.6,
        15.643,
        15.686,
        15.728,
        15.772,
        15.815,
        15.858,
        15.902,
        15.946,
        15.99,
        16.034,
        16.078,
        16.122,
        16.167,
        16.212,
        16.257,
        16.302,
        16.348,
        16.393,
        16.439,
        16.485,
        16.531,
        16.578,
        16.624,
        16.671,
        16.718,
        16.765,
        16.813,
        16.86,
        16.908,
        16.956,
        17.004,
        17.053,
        17.101,
        17.15,
        17.199,
        17.248,
        17.298,
        17.347,
        17.397,
        17.447,
        17.498,
        17.548,
        17.599,
        17.65,
        17.701,
        17.753,
        17.804,
        17.856,
        17.908,
        17.96,
        18.013,
        18.066,
        18.119,
        18.172,
        18.226,
        18.279,
        18.333,
        18.387,
        18.442,
        18.496,
        18.551,
        18.607,
        18.662,
        18.718,
        18.774,
        18.83,
        18.886,
        18.943,
        19.0,
        19.057,
        19.114,
        19.172,
        19.23,
        19.288,
        19.347,
        19.405,
        19.464,
        19.524,
        19.583,
        19.643,
        19.703,
        19.764,
        19.824,
        19.885,
        19.946,
        20.008,
        20.07,
        20.132,
        20.194,
        20.257,
        20.32,
        20.383,
        20.446,
        20.51,
        20.574,
        20.639,
        20.704,
        20.769,
        20.834,
        20.9,
        20.966,
        21.032,
        21.099,
        21.165,
        21.233,
        21.3,
        21.368,
        21.436,
        21.505,
        21.574,
        21.643,
        21.712,
        21.782,
        21.852,
        21.923,
        21.994,
        22.065,
        22.137,
        22.209,
        22.281,
        22.353,
        22.426,
        22.5,
        22.573,
        22.647,
        22.722,
        22.797,
        22.872,
        22.947,
        23.023,
        23.1,
        23.176,
        23.253,
        23.331,
        23.409,
        23.487,
        23.565,
        23.644,
        23.724,
        23.804,
        23.884,
        23.964,
        24.045,
        24.127,
        24.209,
        24.291,
        24.374,
        24.457,
        24.54,
        24.624,
        24.708,
        24.793,
        24.879,
        24.964,
        25.05,
        25.137,
        25.224,
        25.312,
        25.399,
        25.488,
        25.577,
        25.666,
        25.756,
        25.846,
        25.937,
        26.028,
        26.12,
        26.212,
        26.305,
        26.398,
        26.492,
        26.586,
        26.68,
        26.776,
        26.871,
        26.967,
        27.064,
        27.161,
        27.259,
        27.357,
        27.456,
        27.556,
        27.656,
        27.756,
        27.857,
        27.959,
        28.061,
        28.163,
        28.267,
        28.37,
        28.475,
        28.58,
        28.685,
        28.791,
        28.898,
        29.005,
        29.113,
        29.222,
        29.331,
        29.441,
        29.551,
        29.662,
        29.774,
        29.886,
        29.999,
        30.112,
        30.226,
        30.341,
        30.456,
        30.573,
        30.689,
        30.807,
        30.925,
        31.044,
        31.163,
        31.283,
        31.404,
        31.526,
        31.648,
        31.771,
        31.895,
        32.019,
        32.144,
        32.27,
        32.397,
        32.524,
        32.653,
        32.781,
        32.911,
        33.042,
        33.173,
        33.305,
        33.438,
        33.571,
        33.705,
        33.841,
        33.977,
        34.114,
        34.251,
        34.39,
        34.529,
        34.669,
        34.81,
        34.952,
        35.095,
        35.239,
        35.383,
        35.528,
        35.675,
        35.822,
        35.97,
        36.119,
        36.269,
        36.42,
        36.572,
        36.725,
        36.879,
        37.033,
        37.189,
        37.346,
        37.504,
        37.662,
        37.822,
        37.983,
        38.144,
        38.307,
        38.471,
        38.636,
        38.802,
        38.969,
        39.137,
        39.306,
        39.477,
        39.648,
        39.82,
        39.994,
        40.169,
        40.345,
        40.522,
        40.7,
        40.88,
        41.06,
        41.242,
        41.425,
        41.609,
        41.795,
        41.982,
        42.17,
        42.359
      ],
      "1": [
        846.77,
        833.59,
        824.59,
        834.85,
        835.21,
        811.87,
        821.83,
        824.11,
        794.84,
        801.9,
        792.79,
        802.37,
        783.87,
        780.88,
        781.67,
        780.41,
        773.07,
        772.12,
        749.31,
        757.95,
        752.24,
        745.47,
        742.35,
        737.45,
        725.42,
        726.45,
        720.33,
        728.46,
        713.33,
        708.71,
        709.43,
        702.9,
        696.39,
        691.83,
        687.29,
        680.79,
        680.96,
        676.98,
        666.36,
        665.59,
        657.45,
        654.2,
        645.38,
        647.75,
        636.44,
        636.86,
        629.23,
        622.86,
        622.44,
        614.84,
        610.35,
        611.86,
        607.39,
        595.58,
        594.91,
        588.42,
        586.93,
        583.14,
        574.7,
        578.15,
        566.38,
        566.04,
        568.17,
        561.53,
        552.94,
        545.7,
        546.78,
        544.61,
        537.19,
        532.32,
        527.19,
        523.44,
        522.61,
        516.94,
        512.22,
        511.6,
        508.8,
        506.13,
        501.46,
        498.53,
        494.72,
        492.46,
        487.89,
        487.63,
        487.14,
        483.88,
        481.96,
        479.14,
        478.08,
        474.19,
        475.24,
        473.15,
        471.36,
        473.55,
        467.8,
        474.83,
        470.24,
        477.03,
        466.7,
        480.36,
        465.9,
        463.63,
        469.8,
        468.5,
        463.94,
        472.36,
        475.93,
        474.55,
        466.27,
        469.18,
        474.51,
        476.6,
        475.53,
        467.36,
        479.06,
        464.92,
        467.92,
        470.48,
        474.37,
        474.84,
        479.26,
        472.31,
        466.77,
        473.94,
        479.53,
        479.84,
        466.56,
        473.12,
        468.51,
        479.3,
        480.44,
        471.8,
        476.45,
        475.0,
        484.65,
        486.21,
        472.19,
        479.2,
        477.1,
        470.16,
        486.77,
        492.27,
        485.83,
        484.46,
        475.52,
        483.58,
        487.21,
        484.99,
        489.71,
        476.33,
        486.84,
        484.3,
        477.62,
        476.91,
        491.14,
        482.45,
        483.09,
        481.59,
        494.51,
        485.73,
        500.12,
        492.16,
        487.05,
        483.96,
        495.24,
        501.11,
        498.12,
        494.29,
        496.18,
        502.92,
        504.04,
        500.72,
        497.26,
        502.68,
        506.16,
        494.65,
        507.07,
        505.63,
        504.45,
        510.97,
        508.42,
        509.7,
        512.47,
        514.0,
        514.12,
        513.47,
        515.89,
        520.98,
        522.79,
        524.45,
        517.86,
        522.85,
        520.61,
        532.17,
        525.03,
        526.71,
        527.1,
        524.74,
        527.1,
        529.15,
        537.05,
        543.38,
        546.84,
        537.25,
        547.51,
        546.39,
        544.71,
        551.05,
        558.86,
        560.04,
        562.04,
        561.76,
        560.71,
        563.4,
        571.38,
        581.86,
        584.6,
        586.03,
        586.56,
        583.49,
        589.25,
        582.13,
        591.36,
        590.56,
        604.89,
        610.26,
        616.5,
        614.38,
        619.62,
        619.95,
        619.78,
        616.92,
        631.63,
        631.44,
        640.44,
        653.16,
        639.29,
        656.72,
        662.11,
        668.53,
        656.7,
        679.43,
        671.35,
        672.21,
        673.96,
        679.43,
        683.54,
        697.51,
        711.46,
        708.7,
        720.46,
        722.46,
        740.91,
        737.49,
        758.79,
        756.79,
        770.87,
        767.69,
        778.07,
        781.23,
        797.24,
        810.07,
        806.89,
        819.84,
        819.73,
        837.62,
        850.13,
        873.56,
        872.03,
        902.58,
        904.85,
        892.59,
        931.2,
        929.78,
        952.42,
        967.77,
        973.99,
        997.13,
        1015.6,
        1031.2,
        1028.8,
        1060.0,
        1075.6,
        1114.1,
        1116.5,
        1137.9,
        1143.7,
        1176.4,
        1181.3,
        1214.4,
        1241.2,
        1275.4,
        1300.1,
        1313.6,
        1364.6,
        1363.8,
        1396.8,
        1440.6,
        1460.0,
        1503.4,
        1536.9,
        1550.2,
        1615.3,
        1647.8,
        1692.2,
        1740.2,
        1775.0,
        1804.4,
        1839.1,
        1937.2,
        1967.8,
        2027.2,
        2034.1,
        2075.2,
        2167.4,
        2208.6,
        2266.9,
        2349.4,
        2365.8,
        2397.9,
        2493.5,
        2567.1,
        2602.8,
        2667.5,
        2710.3,
        2811.2,
        2833.0,
        2920.6,
        2995.5,
        3041.1,
        3069.4,
        3132.2,
        3114.1,
        3169.8,
        3163.4,
        3196.6,
        3233.7,
        3261.9,
        3223.8,
        3233.5,
        3215.8,
        3220.6,
        3184.3,
        3159.0,
        3109.8,
        3030.9,
        2927.4,
        2864.7,
        2893.9,
        2765.1,
        2659.9,
        2594.7,
        2531.6,
        2417.1,
        2350.8,
        2257.7,
        2186.5,
        2095.3,
        2019.4,
        1922.7,
        1840.7,
        1770.6,
        1674.9,
        1632.9,
        1557.5,
        1479.2,
        1420.0,
        1371.1,
        1293.6,
        1231.8,
        1182.5,
        1130.8,
        1074.5,
        1037.0,
        968.07,
        935.62,
        889.13,
        847.96,
        821.44,
        790.59,
        751.42,
        719.41,
        687.68,
        656.39,
        627.92,
        607.8,
        586.95,
        569.11,
        532.25,
        511.1,
        490.98,
        472.75,
        448.2,
        431.69,
        418.9,
        410.49,
        392.45,
        372.81,
        363.14,
        347.48,
        333.59,
        325.72,
        305.45,
        303.92,
        292.41,
        280.65,
        271.51,
        262.78,
        255.89,
        247.84,
        239.2,
        229.69,
        225.62,
        218.58,
        206.27,
        197.74,
        196.67,
        187.41,
        188.38,
        177.02,
        174.01,
        169.2,
        162.59,
        159.92,
        150.63,
        149.05,
        147.8,
        142.95,
        138.33,
        133.68,
        132.58,
        125.83,
        122.02,
        119.84,
        116.11,
        114.73,
        107.13,
        106.77,
        103.23,
        103.16,
        100.36,
        101.47,
        92.02,
        94.13,
        90.85,
        88.3,
        86.91,
        87.33,
        80.59,
        79.73,
        77.52,
        78.15,
        75.28,
        71.72,
        71.53,
        70.59,
        66.74,
        67.4,
        64.53,
        65.1,
        60.38,
        62.67,
        60.8,
        57.14,
        59.48,
        56.26,
        58.66,
        53.53,
        53.32,
        52.28,
        53.38,
        49.88,
        48.69,
        47.52,
        46.77,
        47.68,
        45.29,
        45.6,
        44.24,
        45.38,
        43.1,
        43.38,
        41.54,
        41.51,
        40.13,
        40.35,
        39.47,
        40.4,
        37.38,
        37.59,
        38.77,
        34.68,
        33.41,
        37.81,
        36.92,
        34.95,
        34.25,
        32.81,
        35.13,
        33.49,
        36.41,
        37.8,
        37.47,
        35.08,
        35.7,
        37.08,
        33.56,
        34.88,
        34.32,
        31.43,
        37.8,
        36.13,
        35.31,
        31.85,
        34.1,
        34.56,
        35.31,
        33.76,
        32.49,
        29.79,
        32.55,
        33.3,
        33.42,
        33.8,
        30.95,
        33.75,
        32.17,
        30.59,
        30.27,
        28.48,
        31.42,
        32.99,
        30.01,
        30.67,
        31.17,
        32.07,
        32.8,
        27.85,
        28.42,
        28.84,
        30.86,
        29.67,
        28.25,
        26.88,
        30.07,
        26.17,
        29.3,
        29.94,
        28.04,
        31.08,
        28.13,
        28.04,
        28.55,
        28.15,
        29.1,
        31.02,
        27.56,
        29.34,
        28.96,
        25.44,
        28.73,
        25.15,
        27.46,
        27.6,
        25.63,
        27.3,
        25.17,
        25.36,
        26.1,
        27.74,
        25.6,
        27.88,
        28.26,
        27.85,
        26.71,
        25.86,
        27.0,
        28.4,
        27.0,
        26.27,
        25.27,
        24.91,
        26.67,
        27.64,
        24.36,
        24.6,
        24.7,
        25.42,
        22.91,
        25.56,
        26.98,
        24.63,
        23.47,
        23.26,
        28.1,
        25.63,
        24.4,
        25.56,
        24.8,
        23.94,
        24.86,
        23.28,
        23.92,
        23.04,
        24.33,
        23.73,
        23.63,
        24.54,
        23.36,
        24.62,
        22.19,
        22.2,
        23.47,
        24.32,
        25.03,
        21.75,
        21.91,
        21.03,
        22.3,
        21.62,
        22.82,
        22.81,
        19.3,
        20.18,
        24.69,
        22.4,
        21.4,
        20.22,
        22.74,
        20.8,
        20.22,
        21.09,
        21.16,
        22.62,
        20.22,
        21.45,
        21.29,
        18.03,
        20.5,
        20.2,
        23.01,
        21.98,
        19.91,
        22.74,
        20.25,
        21.18,
        20.32,
        17.66,
        19.13,
        19.48,
        19.44,
        20.16,
        19.86,
        22.71,
        19.8,
        18.87,
        19.86,
        19.3,
        20.82,
        18.96,
        20.2,
        18.01,
        19.8,
        18.65,
        19.66,
        19.88,
        19.55,
        16.15,
        17.13,
        21.49,
        19.82,
        18.15,
        18.48,
        15.51,
        20.12,
        18.62,
        17.98,
        19.07,
        17.58,
        17.56,
        15.92,
        18.87,
        18.58,
        17.57,
        17.92,
        16.38,
        16.73,
        17.99,
        16.98,
        15.99,
        18.49,
        17.39,
        17.76,
        17.04,
        17.21,
        18.39,
        16.95,
        16.04,
        15.71,
        17.17,
        15.88,
        16.31,
        15.42,
        15.88,
        15.65,
        16.66,
        17.65,
        15.71,
        15.62,
        15.85,
        16.15,
        15.3,
        16.78,
        14.97,
        15.09,
        16.63,
        16.41,
        17.07,
        14.21,
        16.05,
        14.0,
        15.51,
        15.12,
        14.81,
        14.94,
        15.7,
        14.95,
        12.86,
        14.08,
        15.25,
        14.96,
        15.02,
        15.36,
        15.67,
        13.45,
        15.05,
        13.96,
        15.13,
        12.34,
        13.29,
        15.16,
        14.8,
        15.1,
        13.12,
        12.6,
        13.78,
        14.49,
        14.33,
        14.32,
        13.26,
        12.26,
        15.84,
        12.9,
        12.84,
        14.74,
        12.3,
        13.25,
        12.85,
        13.06,
        13.38,
        12.85,
        13.78,
        13.85,
        11.6,
        13.24,
        13.38,
        13.21,
        11.53,
        12.21,
        12.32,
        12.9,
        12.14,
        9.66,
        12.77,
        12.81,
        12.27,
        11.52,
        11.41,
        11.11,
        11.6,
        13.68,
        13.14,
        10.98,
        11.43,
        10.43,
        12.58,
        11.78,
        10.79,
        12.47,
        10.98,
        12.45,
        11.26,
        10.98,
        9.61,
        11.4,
        12.45,
        12.81,
        12.9,
        10.97,
        10.49,
        11.31,
        7.68,
        8.84,
        9.92,
        8.63,
        9.31,
        10.19,
        10.21,
        12.0,
        11.78,
        11.42,
        12.15,
        13.57,
        11.82,
        13.5,
        12.94,
        13.28,
        15.71,
        15.22,
        15.33,
        16.74,
        16.7,
        17.29,
        18.09,
        21.96,
        21.38,
        24.19,
        25.59,
        29.0,
        31.25,
        34.23,
        42.53,
        50.57,
        59.32,
        75.99,
        95.98,
        145.9,
        214.79,
        346.76,
        492.25,
        696.26,
        774.56,
        713.04,
        536.44,
        348.37,
        205.59,
        120.57,
        75.26,
        49.63,
        35.49,
        26.01,
        22.41,
        17.18,
        15.85,
        13.25,
        13.7,
        10.61,
        10.18,
        9.15,
        7.69,
        8.15,
        8.43,
        7.17,
        7.11,
        6.44,
        6.93,
        5.84,
        5.51,
        5.18,
        6.31,
        4.72,
        4.71,
        4.74,
        5.49,
        4.74,
        5.18,
        5.69,
        4.95,
        4.0,
        4.19,
        4.47,
        4.62,
        4.46,
        5.28,
        4.77,
        5.36,
        4.54,
        5.16,
        4.99,
        5.38,
        5.87,
        6.75,
        5.91,
        7.71,
        7.16,
        6.64,
        7.32,
        8.08,
        9.14,
        9.98,
        10.07,
        11.24,
        11.8,
        14.47,
        15.17,
        15.72,
        17.83,
        19.37,
        24.71,
        27.35,
        36.04,
        45.03,
        52.56,
        69.7,
        90.63,
        122.28,
        172.99,
        266.95,
        410.51,
        632.6,
        876.2,
        1007.1,
        974.69,
        730.47,
        506.04,
        336.42,
        234.12,
        172.55,
        140.23,
        121.96,
        105.2,
        93.3,
        89.0,
        87.14,
        87.58,
        101.36,
        140.03,
        225.52,
        368.31,
        447.07,
        320.35,
        135.13,
        45.98,
        16.53,
        10.99,
        11.45,
        10.56,
        12.11,
        10.86,
        9.26,
        11.09,
        10.57,
        10.56,
        10.96,
        10.38,
        10.63,
        11.01,
        9.81,
        8.98,
        10.3,
        9.79,
        9.58,
        12.22,
        12.63,
        11.85,
        11.23,
        12.58,
        13.87,
        12.3,
        13.71,
        12.87,
        13.26,
        15.14,
        15.12,
        15.59,
        16.27,
        16.5,
        18.05,
        16.57,
        18.26,
        21.96,
        23.2,
        25.76,
        26.97,
        29.89,
        33.48,
        40.12,
        43.13,
        51.5,
        62.2,
        76.41,
        105.1,
        153.37,
        210.5,
        267.17,
        309.63,
        320.2,
        289.21,
        231.63,
        163.73,
        131.39,
        140.62,
        213.4,
        356.51,
        539.82,
        668.8,
        705.05,
        597.79,
        437.56,
        296.39,
        184.22,
        130.76,
        110.5,
        87.53,
        86.84,
        80.37,
        79.79,
        84.58,
        90.6,
        92.39,
        93.3,
        103.25,
        105.42,
        111.79,
        118.56,
        118.8,
        112.49,
        110.98,
        103.02,
        94.19,
        88.4,
        80.49,
        68.04,
        61.49,
        60.41,
        53.06,
        48.35,
        43.93,
        37.15,
        35.91,
        30.46,
        27.82,
        29.29,
        27.15,
        26.53,
        21.75,
        21.67,
        21.28,
        20.81,
        18.11,
        17.31,
        16.43,
        17.14,
        16.41,
        18.76,
        13.59,
        15.26,
        16.51,
        15.17,
        18.12,
        17.87,
        18.07,
        19.94,
        21.6,
        24.69,
        28.54,
        38.77,
        54.04,
        91.92,
        170.55,
        299.12,
        434.46,
        494.35,
        429.52,
        295.2,
        171.16,
        82.78,
        42.65,
        25.09,
        16.15,
        13.59,
        9.33,
        8.49,
        7.95,
        6.08,
        5.81,
        5.63,
        5.84,
        3.95,
        5.06,
        4.28,
        4.27,
        4.87,
        5.07,
        5.27,
        4.26,
        4.22,
        4.41,
        3.62,
        3.26,
        3.3,
        3.73,
        2.5,
        2.84,
        2.76,
        2.85,
        3.21,
        3.41,
        2.84,
        2.17,
        1.98,
        2.33,
        2.71,
        2.61,
        3.04,
        2.23,
        2.54,
        2.25,
        1.72,
        2.39,
        2.0,
        2.35,
        1.92,
        2.56,
        1.99,
        1.91,
        2.21,
        2.79,
        2.79,
        3.92,
        3.65,
        5.23,
        4.69,
        5.94,
        4.93,
        6.33,
        6.56,
        9.35,
        9.94,
        13.25,
        14.2,
        21.75,
        31.65,
        53.72,
        102.24,
        229.67,
        388.5,
        536.92,
        527.58,
        403.97,
        225.21,
        106.72,
        57.19,
        32.25,
        24.41,
        17.77,
        15.32,
        13.0,
        11.0,
        9.32,
        8.71,
        8.02,
        7.79,
        7.98,
        8.84,
        8.31,
        9.99,
        15.65,
        19.92,
        19.26,
        15.86,
        8.44,
        4.06,
        3.25,
        3.32,
        3.18,
        3.02,
        2.75,
        3.18,
        3.12,
        3.3,
        2.53,
        4.16,
        3.11,
        3.99,
        4.71,
        4.44,
        4.94,
        5.94,
        6.26,
        8.09,
        12.18,
        19.47,
        44.08,
        109.51,
        185.45,
        223.3,
        192.94,
        107.85,
        40.23,
        15.68,
        7.15,
        5.42,
        3.35,
        4.04,
        4.21,
        6.23,
        6.7,
        4.93,
        3.24,
        2.83,
        1.56,
        1.73,
        1.22,
        1.18,
        1.65,
        1.71,
        1.16,
        1.34,
        0.92,
        1.28,
        1.14,
        1.11,
        1.43,
        1.09,
        1.14,
        1.2,
        1.29,
        0.66,
        0.81,
        1.15,
        1.16,
        1.19,
        1.1,
        0.87,
        0.77,
        0.84,
        0.56,
        3.68,
        0.54,
        0.86,
        0.26,
        0.89,
        1.0,
        0.7,
        1.52,
        1.59,
        2.04,
        3.19,
        8.29,
        17.12,
        30.16,
        33.91,
        27.76,
        16.23,
        7.48,
        3.26,
        2.4,
        1.91,
        2.06,
        1.31,
        1.1,
        1.03,
        1.02,
        0.91,
        1.46,
        0.9,
        1.02,
        1.46,
        1.49,
        1.46,
        1.09,
        1.7,
        2.31,
        3.87,
        5.18,
        4.16,
        1.73,
        0.98,
        1.04,
        1.07,
        1.06,
        1.01,
        0.85,
        0.63,
        0.86,
        0.58,
        1.08,
        0.97,
        1.02,
        1.16,
        0.7,
        1.12,
        0.65,
        0.9,
        0.75,
        1.11,
        0.96,
        1.02,
        1.04,
        0.73,
        0.66,
        1.11,
        1.23,
        0.61,
        1.26,
        1.7,
        1.92,
        4.04,
        11.14,
        33.74,
        70.83,
        95.17,
        76.46,
        46.52,
        12.52,
        2.96
      ]
    }
  }
}