{
  "id": "10326003XX",
  "reaction": {
    "x4code": "(94-PU-239(N,F),,SIG,,RAW)",
    "target": "94-PU-239",
    "process": "N,F",
    "sf4": null,
    "residual": null,
    "sf5": null,
    "sf6": "SIG",
    "sf7": null,
    "sf8": "RAW",
    "sf9": null,
    "freetext": []
  },
  "measurement_conditions": {
    "CORRECTION": {
      "XX": {
        "0": {
          "freetext": [
            "Final spectrum was not clean from the background.",
            "241Pu peak is present at 28 eV."
          ]
        }
      }
    },
    "DETECTOR": {
      "XX": {
        "0": {
          "x4code": "(SOLST)",
          "freetext": [
            " Stack of 10 thin Si solid-state detectors",
            " surrounded by 21 atmospheres of 3He."
          ]
        }
      }
    },
    "MONIT-REF": {
      "XX": {
        "(MONIT)": {
          "x4code": null,
          "freetext": [
            ""
          ]
        }
      }
    },
    "MONITOR": {
      "XX": {
        "0": {
          "x4code": [
            "(92-U-235(N,F),,SIG)"
          ],
          "freetext": [
            " Flux monitor."
          ]
        }
      }
    },
    "SAMPLE": {
      "XX": {
        "0": {
          "freetext": [
            "1.4x10-6 atoms/barn sample."
          ]
        }
      }
    }
  },
  "common_data": null,
  "data_table": {
    "heads": [
      "EN",
      "DATA"
    ],
    "units": [
      "EV",
      "B"
    ],
    "data": [
      [
        20.21,
        20.46,
        20.6,
        20.67,
        20.93,
        21.12,
        21.31,
        21.43,
        21.56,
        21.61,
        21.62,
        21.74,
        21.85,
        21.86,
        21.91,
        21.96,
        22.01,
        22.02,
        22.13,
        22.34,
        22.35,
        22.42,
        22.43,
        22.44,
        22.51,
        22.58,
        22.59,
        22.65,
        22.73,
        22.8,
        22.87,
        23.01,
        23.14,
        23.21,
        23.34,
        23.54,
        23.6,
        23.66,
        23.72,
        23.85,
        23.92,
        23.93,
        24.0,
        24.01,
        24.03,
        24.07,
        24.16,
        24.17,
        24.24,
        24.43,
        24.56,
        24.82,
        25.02,
        25.14,
        25.27,
        25.4,
        25.46,
        25.58,
        25.64,
        25.71,
        25.77,
        25.83,
        25.88,
        25.89,
        25.93,
        25.94,
        25.99,
        26.01,
        26.05,
        26.11,
        26.17,
        26.25,
        26.31,
        26.34,
        26.39,
        26.42,
        26.48,
        26.56,
        26.57,
        26.64,
        26.71,
        26.72,
        26.79,
        26.92,
        27.05,
        27.11,
        27.17,
        27.23,
        27.37,
        27.38,
        27.39,
        27.46,
        27.6,
        27.74,
        28.0,
        28.07,
        28.33,
        28.45,
        28.64,
        28.65,
        28.91,
        29.11,
        29.25,
        29.51,
        29.52,
        29.65,
        29.66,
        29.92,
        30.05,
        30.25,
        30.38,
        30.51,
        30.57,
        30.7,
        30.76,
        30.89,
        31.02,
        31.16,
        31.35,
        31.48,
        31.54,
        31.6,
        31.67,
        31.73,
        31.77,
        31.78,
        31.83,
        31.9,
        31.96,
        32.01,
        32.07,
        32.21,
        32.28,
        32.36,
        32.43,
        32.5,
        32.51,
        32.65,
        32.79,
        32.85,
        32.92,
        33.0,
        33.2,
        33.46,
        33.59,
        33.86,
        33.99,
        34.12,
        34.25,
        34.32,
        34.58,
        34.84,
        34.91,
        34.96,
        34.97,
        35.08,
        35.09,
        35.14,
        35.27,
        35.34,
        35.41,
        35.49,
        35.5,
        35.51,
        35.58,
        35.91,
        36.24,
        36.5,
        36.7,
        36.96,
        37.16,
        37.29,
        37.49,
        37.68,
        37.95,
        38.14,
        38.28,
        38.48,
        38.74,
        38.93,
        39.13,
        39.33,
        39.46,
        39.66,
        39.85,
        40.05,
        40.24,
        40.37,
        40.37,
        40.5,
        40.56,
        40.69,
        40.75,
        40.81,
        40.87,
        40.93,
        40.98,
        40.99,
        41.1,
        41.16,
        41.21,
        41.22,
        41.34,
        41.47,
        41.61,
        41.68,
        41.75,
        41.83,
        41.84,
        41.92,
        41.93,
        42.07,
        42.08,
        42.15,
        42.22,
        42.29,
        42.49,
        42.69,
        43.02,
        43.28,
        43.47,
        43.6,
        43.66,
        43.72,
        43.85,
        43.9,
        43.96,
        44.02,
        44.08,
        44.13,
        44.18,
        44.19,
        44.38,
        44.45,
        44.53,
        44.61,
        44.69,
        44.7,
        44.78,
        44.91,
        45.05,
        45.32,
        45.51,
        45.77,
        45.9,
        46.03,
        46.09,
        46.28,
        46.41,
        46.6,
        46.66,
        46.72,
        46.73,
        46.85,
        46.98,
        47.03,
        47.04,
        47.09,
        47.14,
        47.15,
        47.4,
        47.53,
        47.67,
        47.74,
        47.82,
        47.89,
        47.89,
        48.03,
        48.23,
        48.43,
        48.69,
        48.82,
        48.95,
        49.01,
        49.13,
        49.14,
        49.33,
        49.46,
        49.59,
        49.65,
        49.84,
        49.91,
        49.98,
        50.12,
        50.13,
        50.27,
        50.34,
        50.41,
        50.48,
        50.68,
        50.82,
        51.02,
        51.09,
        51.42,
        51.55,
        51.67,
        51.68,
        51.86,
        51.98,
        52.04,
        52.09,
        52.1,
        52.22,
        52.47,
        52.54,
        52.56,
        52.63,
        52.78,
        52.79,
        52.93,
        53.0,
        53.14,
        53.34,
        53.6,
        53.93,
        54.26,
        54.39,
        54.52,
        54.65,
        54.71,
        54.83,
        54.89,
        55.02,
        55.08,
        55.14,
        55.26,
        55.39,
        55.59,
        55.67,
        55.74,
        55.94,
        56.07,
        56.13,
        56.26,
        56.32,
        56.45,
        56.51,
        56.57,
        56.7,
        56.76,
        56.89,
        57.02,
        57.08,
        57.34,
        57.54,
        57.61,
        57.81,
        58.08,
        58.34,
        58.47,
        58.53,
        58.66,
        58.79,
        58.98,
        59.12,
        59.27,
        59.32,
        59.41,
        59.74,
        60.07,
        60.27,
        60.6,
        60.73,
        60.93,
        61.12,
        61.32,
        61.59,
        61.85,
        61.98,
        62.24,
        62.51,
        62.64,
        62.84,
        62.97,
        63.17,
        63.23,
        63.36,
        63.49,
        63.62,
        63.75,
        63.95,
        64.08,
        64.28,
        64.48,
        64.61,
        64.75,
        64.88,
        64.96,
        65.03,
        65.23,
        65.36,
        65.43,
        65.56,
        65.69,
        65.82,
        65.95,
        66.07,
        66.13,
        66.4,
        66.53,
        66.66,
        66.79,
        66.98,
        67.18,
        67.31,
        67.57,
        67.83,
        67.96,
        68.16,
        68.42,
        68.69,
        68.88,
        69.08,
        69.34,
        69.61,
        69.87,
        70.13,
        70.4,
        70.59,
        70.92,
        71.19,
        71.58,
        71.91,
        72.18,
        72.31,
        72.51,
        72.65,
        72.85,
        72.98,
        73.11,
        73.25,
        73.32,
        73.59,
        73.72,
        73.79,
        73.79,
        74.06,
        74.19,
        74.33,
        74.46,
        74.67,
        74.93,
        74.99,
        75.17,
        75.29,
        75.42,
        75.55,
        75.75,
        75.87,
        76.07,
        76.26,
        76.33,
        76.52,
        76.85,
        76.98,
        77.25,
        77.44,
        77.64,
        77.9,
        78.16,
        78.56,
        78.82,
        79.15,
        79.35,
        79.55,
        79.69,
        79.82,
        79.96,
        80.09,
        80.23,
        80.36,
        80.63,
        80.83,
        81.03,
        81.36,
        81.62,
        81.89,
        82.28,
        82.68,
        83.01,
        83.14,
        83.47,
        83.8,
        83.94,
        84.14,
        84.27,
        84.53,
        84.8,
        84.93,
        85.26,
        85.46,
        85.65,
        85.78,
        86.04,
        86.24,
        86.37,
        86.7,
        86.96,
        87.09,
        87.28,
        87.48,
        87.68,
        87.94,
        88.13,
        88.33,
        88.66,
        88.99,
        89.25,
        89.45,
        89.65,
        89.85,
        90.05,
        90.25,
        90.39,
        90.65,
        90.84,
        91.1,
        91.29,
        91.49,
        91.75,
        92.02,
        92.21,
        92.48,
        92.55,
        92.81,
        93.07,
        93.34,
        93.6,
        93.87,
        94.2,
        94.4,
        94.6,
        94.73,
        94.93,
        95.13,
        95.4,
        95.53,
        95.86,
        96.12,
        96.51,
        96.84,
        97.04,
        97.23,
        97.43,
        97.69,
        97.89,
        98.09,
        98.48,
        98.81,
        99.07,
        99.4,
        99.67,
        100.3,
        101.9,
        103.3,
        103.6,
        103.7,
        104.5,
        104.9,
        105.2,
        105.3,
        105.4,
        106.5,
        107.8,
        108.4,
        108.8,
        108.9,
        109.7,
        110.5,
        110.8,
        110.9,
        111.0,
        111.1,
        112.0,
        112.4,
        112.8,
        112.9,
        113.2,
        113.3,
        114.2,
        114.3,
        114.4,
        114.8,
        115.3,
        115.5,
        117.1,
        117.3,
        117.5,
        117.6,
        117.7,
        118.5,
        118.7,
        119.1,
        119.6,
        120.2,
        121.4,
        123.3,
        123.4,
        124.7,
        125.9,
        126.5,
        126.6,
        127.7,
        127.8,
        128.3,
        131.1,
        131.2,
        132.7,
        134.5,
        135.1,
        135.6,
        136.8,
        138.2,
        138.6,
        138.9,
        140.3,
        140.5,
        140.6,
        140.7,
        140.9,
        141.2,
        141.7,
        142.4,
        143.3,
        143.4,
        144.2,
        144.8,
        145.3,
        145.5,
        146.0,
        148.7,
        148.8,
        151.0,
        151.7,
        152.1,
        152.4,
        153.1,
        153.6,
        154.1,
        154.4,
        154.8,
        155.1,
        155.3,
        155.4,
        156.4,
        157.4,
        158.0,
        158.4,
        160.3,
        160.9,
        161.0,
        161.7,
        162.5,
        163.1,
        163.6,
        163.8,
        164.8,
        165.1,
        166.7,
        167.4,
        168.1,
        168.2,
        170.4,
        171.2,
        172.5,
        173.3,
        173.4,
        174.6,
        174.7,
        175.8,
        177.0,
        178.9,
        180.6,
        181.3,
        182.5,
        183.0,
        183.2,
        184.5,
        186.3,
        186.9,
        188.1,
        189.6,
        189.8,
        190.6,
        191.2,
        191.5,
        192.0,
        192.4,
        192.5,
        192.7,
        196.1,
        196.2,
        196.4,
        198.7,
        198.8,
        200.7,
        201.7,
        202.7,
        203.6,
        204.1,
        204.9,
        206.4,
        206.9,
        207.8,
        210.9,
        212.0,
        214.6,
        216.4,
        216.7,
        217.5,
        217.7,
        220.7,
        222.8,
        222.9,
        223.8,
        226.1,
        228.8,
        232.6,
        235.4,
        236.9,
        239.1,
        240.5,
        241.6,
        244.9,
        245.1,
        245.8,
        246.1,
        246.9,
        251.2,
        252.2,
        252.8,
        253.5,
        254.7,
        257.4,
        260.3,
        265.0,
        266.3,
        267.6,
        270.3,
        273.1,
        276.9,
        277.1,
        277.2,
        279.0,
        280.4,
        285.6,
        287.0,
        290.1,
        291.9,
        292.0,
        292.2,
        297.6,
        297.8,
        298.4,
        299.8,
        302.5,
        303.7,
        304.3,
        306.2,
        306.6,
        307.2,
        308.5,
        309.1,
        313.6,
        315.7,
        315.9,
        318.9,
        320.0,
        320.2,
        322.3,
        328.3,
        328.6,
        335.1,
        335.2,
        335.5,
        338.3,
        339.4,
        342.9,
        343.3,
        344.4,
        344.6,
        348.0,
        350.4,
        353.0,
        355.0,
        357.2,
        358.7,
        360.4,
        368.3,
        370.2,
        370.7,
        375.1,
        380.5,
        381.1,
        387.7,
        388.1,
        391.7,
        393.6,
        395.5,
        400.9,
        401.2,
        404.1,
        407.3,
        407.8,
        411.9,
        416.2,
        416.7,
        418.8,
        422.8,
        423.9,
        425.7,
        427.6,
        428.9,
        438.4,
        439.5,
        442.5,
        442.9,
        445.2,
        447.2,
        450.8,
        451.4,
        452.6,
        454.9,
        455.5,
        457.8,
        462.1,
        464.4,
        472.6,
        478.7,
        480.1,
        481.0,
        487.5,
        490.6,
        493.9,
        498.0,
        498.6,
        501.1,
        505.3,
        508.4,
        509.3,
        514.4,
        522.5,
        525.7,
        529.2,
        530.7,
        531.0,
        538.3,
        538.6,
        539.0,
        544.0,
        549.4,
        556.9,
        559.5,
        561.4,
        566.0,
        569.6,
        571.7,
        573.0,
        576.7,
        582.0,
        582.3,
        584.7,
        593.8,
        597.4,
        597.9,
        604.3,
        611.7,
        619.7,
        620.5,
        620.7,
        626.1,
        631.9,
        634.1,
        646.9,
        648.8,
        649.6,
        654.7,
        657.4,
        664.1,
        667.4,
        677.6,
        681.0,
        682.0,
        686.5,
        691.5,
        695.0,
        695.8,
        709.9,
        718.7,
        722.1,
        724.4,
        731.1,
        740.0,
        740.3,
        750.6,
        751.1,
        756.6,
        761.5,
        762.8,
        764.3,
        777.5,
        789.9,
        796.2,
        802.8,
        805.7,
        814.1,
        822.3,
        839.5,
        850.3,
        855.7,
        856.2,
        866.2,
        876.5,
        885.2,
        888.2,
        889.3,
        907.7,
        913.5,
        928.0,
        934.3,
        945.3,
        949.2,
        953.8,
        957.7,
        978.7,
        979.9,
        992.6,
        993.9,
        997.0,
        1009.0,
        1011.0,
        1031.0,
        1038.0,
        1050.0,
        1052.0,
        1057.0,
        1072.0,
        1084.0,
        1097.0,
        1103.0,
        1114.0,
        1130.0,
        1135.0,
        1148.0,
        1159.0,
        1166.0,
        1186.0,
        1207.0,
        1213.0,
        1218.0,
        1233.0,
        1246.0,
        1273.0,
        1288.0,
        1308.0,
        1314.0,
        1323.0,
        1348.0,
        1353.0,
        1374.0,
        1376.0,
        1393.0,
        1422.0,
        1447.0,
        1455.0,
        1481.0,
        1517.0,
        1541.0,
        1557.0,
        1570.0,
        1581.0,
        1609.0,
        1617.0,
        1655.0,
        1711.0,
        1746.0,
        1763.0,
        1794.0,
        1825.0,
        1849.0,
        1870.0,
        1912.0,
        1923.0,
        1946.0,
        1967.0,
        1977.0,
        2000.0,
        2023.0,
        2045.0,
        2055.0,
        2087.0,
        2097.0,
        2147.0,
        2217.0,
        2241.0,
        2251.0,
        2306.0,
        2329.0,
        2353.0,
        2406.0,
        2446.0,
        2464.0,
        2507.0,
        2519.0,
        2575.0,
        2617.0,
        2645.0,
        2716.0,
        2747.0,
        2792.0,
        2810.0,
        2859.0,
        2874.0,
        2908.0,
        2988.0,
        3003.0,
        3100.0,
        3158.0,
        3210.0,
        3249.0,
        3269.0,
        3313.0,
        3377.0,
        3427.0,
        3508.0,
        3539.0,
        3589.0,
        3640.0,
        3726.0,
        3800.0,
        3857.0,
        3918.0,
        3938.0,
        4032.0,
        4046.0,
        4067.0,
        4187.0,
        4284.0,
        4387.0,
        4453.0,
        4584.0,
        4718.0,
        4882.0,
        4972.0,
        5089.0,
        5186.0,
        5270.0,
        5370.0,
        5469.0,
        5576.0,
        5740.0,
        5877.0,
        6048.0,
        6196.0,
        6258.0,
        6383.0,
        6503.0,
        6595.0,
        6726.0,
        6892.0,
        7020.0,
        7119.0,
        7284.0,
        7496.0,
        7574.0,
        7763.0,
        7907.0,
        8058.0,
        8252.0,
        8374.0,
        8619.0,
        8826.0,
        8960.0,
        9180.0,
        9489.0,
        9570.0,
        10170.0,
        10460.0,
        10630.0,
        10990.0,
        11300.0,
        11550.0,
        11680.0,
        12140.0,
        12270.0,
        12690.0,
        13040.0,
        13410.0,
        13860.0,
        14180.0,
        14570.0,
        14970.0,
        15480.0,
        15830.0,
        16360.0,
        16730.0,
        17290.0,
        17870.0,
        18480.0,
        18990.0,
        19520.0,
        20180.0,
        20860.0,
        21560.0,
        22170.0,
        23170.0,
        23810.0,
        24750.0,
        25590.0,
        26890.0,
        27650.0,
        28580.0,
        29540.0,
        30880.0,
        32270.0,
        33730.0,
        35060.0,
        36640.0,
        38090.0,
        39590.0,
        41840.0,
        43490.0,
        45700.0,
        47770.0,
        50770.0,
        53370.0,
        56390.0,
        59250.0,
        62970.0,
        66550.0,
        70310.0,
        75140.0,
        79860.0,
        86270.0,
        91700.0,
        97960.0,
        104100.0,
        112500.0,
        120800.0,
        131300.0,
        142600.0,
        155800.0,
        170200.0,
        188000.0,
        207600.0,
        230600.0,
        260300.0,
        290700.0,
        328300.0,
        376900.0,
        435000.0,
        507700.0,
        605800.0,
        738900.0
      ],
      [
        1.79,
        2.966,
        2.178,
        1.662,
        2.183,
        3.096,
        4.225,
        5.991,
        8.172,
        16.41,
        11.14,
        21.53,
        74.34,
        41.6,
        97.51,
        161.3,
        458.8,
        203.6,
        702.9,
        496.9,
        220.5,
        161.8,
        101.7,
        80.64,
        61.54,
        46.96,
        29.51,
        35.83,
        24.34,
        15.91,
        12.62,
        10.41,
        8.26,
        7.079,
        6.309,
        7.666,
        11.74,
        14.81,
        17.98,
        22.7,
        16.03,
        12.23,
        8.977,
        3.983,
        2.144,
        6.099,
        1.575,
        1.201,
        0.9166,
        1.158,
        1.579,
        1.409,
        1.849,
        2.427,
        3.185,
        4.02,
        5.274,
        6.658,
        8.733,
        11.45,
        14.46,
        18.24,
        31.37,
        22.14,
        65.47,
        39.59,
        96.44,
        49.95,
        172.4,
        235.1,
        285.4,
        153.7,
        201.6,
        48.17,
        76.66,
        24.96,
        32.74,
        14.53,
        8.454,
        6.451,
        4.736,
        3.612,
        2.978,
        2.273,
        2.983,
        4.936,
        6.729,
        7.86,
        3.92,
        2.876,
        2.194,
        1.38,
        1.138,
        0.7734,
        0.8372,
        0.6902,
        0.8072,
        1.019,
        1.503,
        1.238,
        1.193,
        0.9848,
        0.8443,
        0.8792,
        0.7245,
        0.5531,
        0.4058,
        0.5541,
        0.5133,
        0.4945,
        0.5347,
        0.6011,
        0.702,
        0.9212,
        1.163,
        1.412,
        1.211,
        1.038,
        1.213,
        1.474,
        1.789,
        2.172,
        2.636,
        3.201,
        8.425,
        6.679,
        11.05,
        13.95,
        19.76,
        38.17,
        50.07,
        39.73,
        31.51,
        15.11,
        12.46,
        9.148,
        4.558,
        3.221,
        2.556,
        2.19,
        1.806,
        1.432,
        1.228,
        1.139,
        1.015,
        1.017,
        0.8719,
        1.019,
        1.19,
        1.06,
        0.9458,
        1.15,
        1.343,
        2.056,
        1.452,
        4.462,
        3.031,
        5.853,
        7.109,
        5.219,
        3.982,
        2.409,
        1.297,
        0.9893,
        0.7549,
        0.7002,
        0.7018,
        0.7896,
        0.6773,
        0.8558,
        0.7062,
        0.7938,
        0.6551,
        0.8273,
        0.9309,
        1.131,
        0.8635,
        0.7406,
        0.8333,
        0.9741,
        1.054,
        0.9767,
        0.9048,
        1.143,
        1.285,
        1.338,
        1.392,
        1.974,
        1.627,
        2.307,
        2.694,
        3.148,
        3.821,
        5.012,
        6.085,
        8.624,
        20.21,
        13.21,
        34.78,
        57.54,
        102.9,
        84.76,
        129.9,
        130.0,
        120.4,
        95.49,
        60.05,
        32.34,
        16.75,
        9.751,
        5.672,
        3.856,
        2.829,
        2.159,
        1.712,
        1.358,
        1.211,
        0.9992,
        1.082,
        1.265,
        1.538,
        1.728,
        2.449,
        3.091,
        4.383,
        6.711,
        8.803,
        15.74,
        24.1,
        38.35,
        83.2,
        63.46,
        101.1,
        68.68,
        41.55,
        19.93,
        8.187,
        4.763,
        2.881,
        2.286,
        1.814,
        1.618,
        1.892,
        2.212,
        2.687,
        3.264,
        4.118,
        5.201,
        6.317,
        8.294,
        9.687,
        13.73,
        11.31,
        16.67,
        22.74,
        45.66,
        28.7,
        62.26,
        115.7,
        84.89,
        157.9,
        146.3,
        107.5,
        78.88,
        55.71,
        40.89,
        33.7,
        22.04,
        19.65,
        16.21,
        18.96,
        23.03,
        27.97,
        33.96,
        56.21,
        42.87,
        63.21,
        73.86,
        89.7,
        104.8,
        122.5,
        137.6,
        109.1,
        68.66,
        38.43,
        23.26,
        17.75,
        14.08,
        11.16,
        9.576,
        8.871,
        7.909,
        6.778,
        6.535,
        7.636,
        11.7,
        8.258,
        15.96,
        23.53,
        34.66,
        75.19,
        47.26,
        110.8,
        169.9,
        124.7,
        64.61,
        45.63,
        20.26,
        11.34,
        7.708,
        5.882,
        4.667,
        4.161,
        3.858,
        3.72,
        3.728,
        4.528,
        5.291,
        6.182,
        8.109,
        10.24,
        15.08,
        20.57,
        28.05,
        41.32,
        60.9,
        76.88,
        61.04,
        32.88,
        19.13,
        18.43,
        21.54,
        26.15,
        34.31,
        41.65,
        50.59,
        68.98,
        87.04,
        114.2,
        149.8,
        175.1,
        204.6,
        248.3,
        268.8,
        249.1,
        205.4,
        156.9,
        139.9,
        140.2,
        157.6,
        184.0,
        206.9,
        282.2,
        329.8,
        272.1,
        116.2,
        185.0,
        79.01,
        62.78,
        60.43,
        55.88,
        55.81,
        51.63,
        51.59,
        49.59,
        47.67,
        45.82,
        44.03,
        44.01,
        43.97,
        47.46,
        55.37,
        62.14,
        72.51,
        57.44,
        43.8,
        32.12,
        28.59,
        25.44,
        23.53,
        21.76,
        20.93,
        21.74,
        28.48,
        33.23,
        48.9,
        66.61,
        110.1,
        162.1,
        204.3,
        289.3,
        379.2,
        442.5,
        364.5,
        277.8,
        149.5,
        80.46,
        54.63,
        44.97,
        38.5,
        34.27,
        30.5,
        26.1,
        22.34,
        20.67,
        19.11,
        17.67,
        14.55,
        14.54,
        13.45,
        12.43,
        11.5,
        11.05,
        10.22,
        8.744,
        8.735,
        8.726,
        8.387,
        8.38,
        8.052,
        9.034,
        9.376,
        10.52,
        11.8,
        13.77,
        16.06,
        20.25,
        23.62,
        28.64,
        36.11,
        49.19,
        62.03,
        106.5,
        150.8,
        190.2,
        190.2,
        197.5,
        258.8,
        395.9,
        629.5,
        824.7,
        705.7,
        705.5,
        128.5,
        54.81,
        40.2,
        30.64,
        22.47,
        17.8,
        14.1,
        11.61,
        9.946,
        8.513,
        7.57,
        6.482,
        5.765,
        5.129,
        4.391,
        3.905,
        3.753,
        3.748,
        4.205,
        4.365,
        5.092,
        6.417,
        8.09,
        10.6,
        13.37,
        16.85,
        22.08,
        28.94,
        37.9,
        45.95,
        53.6,
        64.96,
        64.9,
        70.05,
        72.7,
        78.43,
        78.33,
        95.0,
        102.5,
        115.0,
        139.5,
        150.6,
        169.0,
        189.6,
        196.9,
        248.2,
        247.9,
        220.6,
        174.7,
        138.5,
        101.5,
        90.31,
        68.84,
        61.22,
        52.39,
        44.85,
        38.39,
        34.16,
        29.24,
        27.03,
        23.14,
        19.81,
        19.03,
        18.28,
        20.51,
        23.02,
        25.83,
        32.56,
        42.66,
        62.77,
        92.37,
        73.16,
        37.87,
        23.78,
        16.14,
        13.29,
        14.91,
        14.89,
        14.88,
        16.06,
        18.75,
        19.46,
        19.45,
        17.98,
        20.17,
        24.45,
        27.43,
        31.99,
        37.32,
        48.91,
        59.3,
        66.55,
        71.83,
        61.5,
        61.42,
        63.78,
        63.68,
        52.41,
        44.86,
        38.4,
        32.87,
        31.59,
        28.1,
        25.99,
        25.95,
        23.99,
        23.05,
        22.15,
        21.29,
        18.31,
        21.61,
        12.16,
        20.49,
        16.45,
        42.97,
        68.51,
        32.69,
        22.89,
        92.66,
        4.802,
        3.654,
        3.188,
        5.517,
        4.311,
        2.234,
        1.523,
        3.374,
        2.636,
        2.117,
        1.748,
        4.321,
        6.345,
        11.6,
        8.82,
        23.67,
        18.49,
        48.31,
        33.83,
        25.72,
        52.47,
        69.05,
        44.54,
        83.76,
        57.07,
        161.8,
        133.5,
        98.78,
        14.5,
        42.26,
        18.07,
        21.9,
        28.82,
        7.952,
        11.37,
        8.885,
        9.924,
        14.98,
        18.67,
        16.28,
        28.18,
        22.02,
        35.11,
        46.26,
        36.15,
        29.87,
        17.28,
        22.74,
        36.25,
        14.28,
        3.63,
        7.205,
        4.522,
        5.636,
        17.83,
        14.32,
        11.5,
        8.984,
        24.78,
        39.5,
        50.57,
        7.426,
        30.06,
        5.967,
        9.512,
        17.39,
        11.85,
        22.27,
        13.25,
        10.93,
        3.558,
        5.083,
        10.66,
        6.332,
        8.564,
        14.42,
        30.24,
        18.46,
        38.72,
        24.3,
        78.99,
        61.72,
        55.34,
        8.126,
        12.26,
        5.693,
        4.704,
        8.141,
        6.538,
        9.341,
        11.96,
        21.27,
        38.9,
        30.39,
        26.51,
        15.33,
        4.346,
        6.559,
        9.631,
        8.171,
        4.354,
        5.424,
        2.889,
        3.908,
        3.502,
        12.37,
        10.21,
        7.554,
        5.01,
        5.751,
        9.172,
        15.45,
        11.75,
        25.32,
        20.33,
        11.44,
        18.25,
        7.187,
        5.467,
        12.8,
        9.21,
        15.51,
        30.79,
        18.8,
        46.46,
        24.07,
        102.9,
        74.07,
        62.93,
        51.94,
        37.38,
        30.89,
        26.2,
        41.79,
        53.51,
        59.74,
        83.03,
        8.304,
        13.24,
        7.247,
        3.966,
        5.077,
        9.04,
        10.37,
        7.472,
        16.11,
        10.98,
        18.49,
        13.67,
        6.182,
        10.42,
        9.082,
        12.97,
        16.62,
        13.36,
        14.93,
        10.75,
        8.641,
        14.56,
        12.7,
        17.18,
        8.203,
        6.588,
        14.2,
        10.5,
        19.2,
        17.23,
        24.62,
        13.47,
        27.48,
        36.17,
        40.39,
        42.71,
        28.35,
        35.32,
        40.52,
        57.92,
        72.18,
        29.25,
        23.49,
        22.85,
        16.01,
        18.88,
        11.87,
        13.25,
        15.21,
        12.56,
        10.95,
        9.289,
        27.1,
        22.99,
        13.29,
        16.11,
        6.175,
        9.067,
        5.1,
        21.22,
        15.7,
        8.133,
        12.27,
        7.095,
        13.72,
        9.097,
        7.717,
        12.31,
        22.5,
        19.09,
        14.52,
        7.957,
        6.218,
        13.42,
        11.7,
        9.397,
        21.4,
        8.201,
        10.22,
        7.356,
        14.6,
        12.05,
        17.23,
        11.43,
        6.98,
        6.432,
        5.168,
        8.016,
        9.986,
        11.16,
        12.81,
        8.97,
        7.015,
        13.19,
        8.747,
        7.035,
        5.204,
        9.261,
        11.23,
        13.61,
        34.59,
        27.78,
        16.97,
        8.327,
        5.831,
        7.89,
        9.567,
        6.518,
        7.479,
        12.6,
        5.538,
        8.131,
        11.3,
        4.575,
        4.977,
        11.97,
        8.384,
        6.202,
        7.116,
        9.624,
        23.16,
        15.78,
        37.94,
        8.404,
        5.726,
        6.57,
        10.48,
        12.36,
        9.669,
        5.594,
        12.74,
        6.969,
        18.72,
        14.24,
        9.974,
        22.72,
        16.35,
        19.28,
        42.73,
        36.26,
        21.54,
        29.15,
        38.4,
        31.71,
        23.47,
        10.31,
        8.749,
        19.94,
        16.91,
        13.58,
        23.52,
        34.55,
        16.5,
        20.56,
        7.457,
        17.94,
        14.03,
        24.27,
        2.495,
        1.898,
        3.286,
        2.788,
        4.207,
        5.854,
        5.107,
        3.99,
        4.457,
        3.211,
        9.622,
        6.556,
        5.875,
        11.99,
        4.009,
        7.329,
        2.662,
        5.738,
        4.018,
        2.026,
        3.058,
        4.025,
        4.747,
        7.171,
        8.691,
        5.454,
        4.036,
        2.399,
        2.753,
        2.036,
        3.728,
        2.474,
        3.255,
        6.462,
        10.89,
        8.284,
        7.224,
        3.177,
        13.59,
        7.857,
        5.976,
        3.649,
        10.34,
        8.788,
        11.26,
        5.525,
        12.58,
        4.321,
        5.24,
        7.09,
        11.01,
        6.549,
        5.119,
        4.343,
        3.688,
        2.965,
        4.123,
        7.963,
        5.425,
        8.902,
        6.959,
        8.918,
        6.079,
        5.023,
        7.79,
        9.442,
        14.65,
        16.37,
        11.47,
        6.634,
        4.52,
        9.221,
        7.212,
        4.404,
        8.062,
        5.967,
        4.541,
        3.18,
        3.75,
        6.676,
        7.457,
        5.085,
        5.997,
        7.895,
        3.288,
        4.827,
        3.674,
        6.538,
        4.973,
        5.407,
        4.005,
        4.471,
        6.047,
        4.861,
        6.058,
        6.961,
        6.075,
        8.001,
        9.698,
        7.377,
        3.336,
        6.623,
        9.214,
        5.326,
        4.401,
        5.799,
        4.664,
        4.666,
        3.651,
        2.057,
        2.709,
        3.197,
        6.892,
        5.242,
        3.386,
        4.218,
        3.213,
        3.222,
        5.433,
        7.152,
        5.912,
        5.453,
        2.751,
        2.468,
        2.758,
        2.406,
        1.882,
        2.102,
        2.412,
        2.048,
        1.787,
        1.996,
        2.229,
        3.187,
        4.08,
        2.637,
        3.776,
        4.334,
        5.399,
        3.214,
        4.116,
        5.13,
        5.282,
        5.437,
        3.144,
        2.46,
        3.065,
        3.333,
        3.828,
        4.276,
        5.793,
        5.197,
        5.968,
        4.795,
        3.651,
        4.189,
        3.188,
        3.766,
        4.441,
        6.536,
        3.681,
        4.113,
        3.107,
        2.077,
        2.636,
        2.768,
        2.521,
        2.844,
        3.44,
        3.878,
        4.269,
        4.815,
        4.284,
        3.465,
        2.49,
        2.212,
        2.38,
        3.479,
        3.241,
        2.819,
        3.665,
        4.038,
        3.425,
        3.122,
        2.915,
        2.418,
        2.998,
        3.807,
        4.095,
        2.377,
        2.617,
        3.402,
        3.099,
        2.894,
        3.113,
        3.195,
        2.982,
        2.589,
        2.196,
        2.477,
        2.792,
        2.313,
        2.059,
        2.493,
        2.81,
        3.654,
        3.75,
        2.961,
        2.397,
        2.902,
        3.121,
        3.279,
        2.916,
        2.855,
        2.999,
        2.369,
        2.159,
        2.381,
        3.242,
        2.529,
        2.329,
        2.838,
        2.472,
        2.341,
        2.551,
        2.282,
        2.288,
        2.561,
        2.567,
        2.645,
        2.369,
        2.122,
        1.899,
        2.012,
        2.454,
        2.46,
        2.141,
        2.206,
        2.031,
        2.036,
        2.348,
        2.103,
        2.107,
        2.233,
        2.116,
        2.243,
        2.377,
        2.129,
        1.908,
        2.2,
        2.145,
        2.09,
        2.218,
        2.043,
        2.047,
        1.995,
        1.945,
        2.064,
        1.957,
        2.018,
        2.024,
        1.973,
        1.923,
        1.877,
        1.882,
        1.942,
        1.948,
        1.849,
        1.658,
        1.81,
        1.921,
        1.824,
        1.78,
        1.89,
        1.846,
        1.656,
        1.761,
        1.58,
        1.679,
        1.686,
        1.648,
        1.656,
        1.761,
        1.771,
        1.592,
        1.647,
        1.568,
        1.578,
        1.635,
        1.648,
        1.66,
        1.722,
        1.643,
        1.804,
        1.823,
        1.845,
        1.978
      ]
    ]
  }
}