{
  "id": "10267-017-XX",
  "reaction": {
    "x4code": "(94-PU-239(N,F),,SIG)",
    "target": "94-PU-239",
    "process": "N,F",
    "sf4": null,
    "residual": null,
    "sf5": null,
    "sf6": "SIG",
    "sf7": null,
    "sf8": null,
    "sf9": null,
    "freetext": []
  },
  "measurement_conditions": {
    "CORRECTION": {
      "XX": {
        "0": {
          "freetext": [
            "Not corrected for tungsten or 240Pu impurities"
          ]
        }
      }
    },
    "ERR-ANALYS": {
      "XX": {
        "0": {
          "x4code": "(DATA-ERR)",
          "freetext": [
            " No information on the source of uncertainty"
          ]
        },
        "1": {
          "x4code": "(ERR-2)",
          "freetext": [
            " Uncertainty due to normalization (0.5%)"
          ]
        }
      }
    }
  },
  "common_data": {
    "heads": [
      "ERR-2"
    ],
    "units": [
      "PER-CENT"
    ],
    "data": {
      "0": [
        0.5
      ]
    }
  },
  "data_table": {
    "heads": [
      "EN",
      "DATA",
      "DATA-ERR"
    ],
    "units": [
      "EV",
      "B",
      "B"
    ],
    "data": {
      "0": [
        0.7022,
        0.7106,
        0.7192,
        0.728,
        0.7369,
        0.746,
        0.7553,
        0.7648,
        0.7744,
        0.7842,
        0.7942,
        0.8044,
        0.8147,
        0.8253,
        0.8361,
        0.8471,
        0.8583,
        0.8698,
        0.8815,
        0.8934,
        0.9055,
        0.9179,
        0.9306,
        0.9435,
        0.9567,
        0.9702,
        0.984,
        0.998,
        1.0124,
        1.0271,
        1.0421,
        1.0574,
        1.0731,
        1.0891,
        1.1055,
        1.1222,
        1.1394,
        1.1569,
        1.1748,
        1.1932,
        1.212,
        1.2312,
        1.2509,
        1.2711,
        1.2918,
        1.313,
        1.3347,
        1.3569,
        1.3797,
        1.4031,
        1.4271,
        1.4517,
        1.477,
        1.5029,
        1.5295,
        1.5568,
        1.5849,
        1.6137,
        1.6433,
        1.6738,
        1.7051,
        1.7372,
        1.7703,
        1.8044,
        1.8394,
        1.8755,
        1.9127,
        1.9509,
        1.9903,
        2.031,
        2.0729,
        2.1161,
        2.1606,
        2.2066,
        2.2541,
        2.3031,
        2.3537,
        2.406,
        2.4601,
        2.5161,
        2.5739,
        2.6338,
        2.6958,
        2.76,
        2.8265,
        2.8955,
        2.967,
        3.0412,
        3.1182,
        3.1982,
        3.2813,
        3.3677,
        3.4575,
        3.551,
        3.6483,
        3.7497,
        3.8553,
        3.9133,
        3.9202,
        3.9271,
        3.9341,
        3.941,
        3.948,
        3.955,
        3.962,
        3.9691,
        3.9761,
        3.9832,
        3.9903,
        3.9974,
        4.0045,
        4.0117,
        4.0188,
        4.026,
        4.0332,
        4.0404,
        4.0477,
        4.055,
        4.0622,
        4.0695,
        4.0769,
        4.0842,
        4.0916,
        4.0989,
        4.1063,
        4.1138,
        4.1212,
        4.1287,
        4.1362,
        4.1437,
        4.1512,
        4.1587,
        4.1663,
        4.1739,
        4.1815,
        4.1891,
        4.1968,
        4.2044,
        4.2121,
        4.2198,
        4.2276,
        4.2353,
        4.2431,
        4.2509,
        4.2587,
        4.2665,
        4.2744,
        4.2823,
        4.2902,
        4.2981,
        4.3061,
        4.314,
        4.322,
        4.33,
        4.3381,
        4.3461,
        4.3542,
        4.3623,
        4.3704,
        4.3786,
        4.3868,
        4.395,
        4.4032,
        4.4114,
        4.4197,
        4.428,
        4.4363,
        4.4446,
        4.453,
        4.4614,
        4.4698,
        4.4782,
        4.4867,
        4.4951,
        4.5036,
        4.5122,
        4.5207,
        4.5293,
        4.5379,
        4.5465,
        4.5552,
        4.5638,
        4.5725,
        4.5812,
        4.59,
        4.5988,
        4.6076,
        4.6164,
        4.6252,
        4.6341,
        4.643,
        4.6519,
        4.6609,
        4.6698,
        4.6789,
        4.6879,
        4.6969,
        4.706,
        4.7151,
        4.7243,
        4.7334,
        4.7426,
        4.7518,
        4.7611,
        4.7703,
        4.7796,
        4.7889,
        4.7983,
        4.8077,
        4.8171,
        4.8265,
        4.836,
        4.8454,
        4.855,
        4.8645,
        4.8741,
        4.8837,
        4.8933,
        4.903,
        4.9126,
        4.9223,
        4.9321,
        4.9419,
        4.9517,
        4.9615,
        4.9714,
        4.9812,
        4.9912,
        5.0011,
        5.0111,
        5.0211,
        5.0311,
        5.0412,
        5.0513,
        5.0614,
        5.0716,
        5.0818,
        5.092,
        5.1022,
        5.1125,
        5.1228,
        5.1332,
        5.1435,
        5.154,
        5.1644,
        5.1749,
        5.1854,
        5.1959,
        5.2065,
        5.2171,
        5.2277,
        5.2384,
        5.249,
        5.2598,
        5.2705,
        5.2813,
        5.2922,
        5.303,
        5.3139,
        5.3248,
        5.3358,
        5.3468,
        5.3578,
        5.3689,
        5.38,
        5.3911,
        5.4023,
        5.4135,
        5.4247,
        5.436,
        5.4473,
        5.4587,
        5.47,
        5.4814,
        5.4929,
        5.5044,
        5.5159,
        5.5275,
        5.5391,
        5.5507,
        5.5623,
        5.5741,
        5.5858,
        5.5976,
        5.6094,
        5.6212,
        5.6331,
        5.6451,
        5.657,
        5.669,
        5.6811,
        5.6932,
        5.7053,
        5.7174,
        5.7296,
        5.7419,
        5.7541,
        5.7665,
        5.7788,
        5.7912,
        5.8036,
        5.8161,
        5.8286,
        5.8412,
        5.8538,
        5.8664,
        5.8791,
        5.8918,
        5.9046,
        5.9174,
        5.9302,
        5.9431,
        5.956,
        5.969,
        5.982,
        5.995,
        6.0081,
        6.0213,
        6.0345,
        6.0477,
        6.061,
        6.0743,
        6.0876,
        6.101,
        6.1145,
        6.128,
        6.1415,
        6.1551,
        6.1687,
        6.1824,
        6.1961,
        6.2099,
        6.2237,
        6.2375,
        6.2514,
        6.2654,
        6.2794,
        6.2934,
        6.3075,
        6.3216,
        6.3358,
        6.35,
        6.3643,
        6.3786,
        6.393,
        6.4074,
        6.4219,
        6.4364,
        6.451,
        6.4656,
        6.4803,
        6.495,
        6.5098,
        6.5246,
        6.5395,
        6.5544,
        6.5693,
        6.5844,
        6.5994,
        6.6146,
        6.6298,
        6.645,
        6.6603,
        6.6756,
        6.691,
        6.7064,
        6.7219,
        6.7375,
        6.7531,
        6.7687,
        6.7845,
        6.8002,
        6.8161,
        6.8319,
        6.8479,
        6.8639,
        6.8799,
        6.896,
        6.9122,
        6.9284,
        6.9447,
        6.961,
        6.9774,
        6.9938,
        7.0103,
        7.0269,
        7.0435,
        7.0602,
        7.0769,
        7.0937,
        7.1106,
        7.1275,
        7.1445,
        7.1615,
        7.1786,
        7.1958,
        7.213,
        7.2303,
        7.2476,
        7.2651,
        7.2825,
        7.3001,
        7.3177,
        7.3353,
        7.3531,
        7.3709,
        7.3887,
        7.4066,
        7.4246,
        7.4427,
        7.4608,
        7.479,
        7.4972,
        7.5156,
        7.5339,
        7.5524,
        7.5709,
        7.5895,
        7.6082,
        7.6269,
        7.6457,
        7.6646,
        7.6835,
        7.7025,
        7.7216,
        7.7407,
        7.7599,
        7.7792,
        7.7986,
        7.818,
        7.8375,
        7.8571,
        7.8768,
        7.8965,
        7.9163,
        7.9362,
        7.9561,
        7.9762,
        7.9963,
        8.0164,
        8.0367,
        8.057,
        8.0774,
        8.0979,
        8.1185,
        8.1391,
        8.1599,
        8.1807,
        8.2015,
        8.2225,
        8.2435,
        8.2647,
        8.2859,
        8.3072,
        8.3285,
        8.35,
        8.3715,
        8.3931,
        8.4148,
        8.4366,
        8.4585,
        8.4804,
        8.5025,
        8.5246,
        8.5468,
        8.5691,
        8.5915,
        8.614,
        8.6365,
        8.6592,
        8.6819,
        8.7048,
        8.7277,
        8.7507,
        8.7738,
        8.797,
        8.8203,
        8.8437,
        8.8671,
        8.8907,
        8.9144,
        8.9381,
        8.962,
        8.9859,
        9.01,
        9.0341,
        9.0583,
        9.0827,
        9.1071,
        9.1316,
        9.1563,
        9.181,
        9.2058,
        9.2308,
        9.2558,
        9.2809,
        9.3062,
        9.3315,
        9.3569,
        9.3825,
        9.4081,
        9.4339,
        9.4598,
        9.4857,
        9.5118,
        9.538,
        9.5643,
        9.5907,
        9.6172,
        9.6438,
        9.6705,
        9.6974,
        9.7243,
        9.7514,
        9.7786,
        9.8059,
        9.8333,
        9.8608,
        9.8885,
        9.9162,
        9.9441,
        9.9721,
        10.0002,
        10.0284,
        10.0568,
        10.0852,
        10.1138,
        10.1425,
        10.1714,
        10.2003,
        10.2294,
        10.2586,
        10.2879,
        10.3174,
        10.347,
        10.3767,
        10.4065,
        10.4365,
        10.4666,
        10.4968,
        10.5272,
        10.5577,
        10.5883,
        10.619,
        10.6499,
        10.681,
        10.7121,
        10.7434,
        10.7749,
        10.8064,
        10.8381,
        10.87,
        10.902,
        10.9341,
        10.9664,
        10.9988,
        11.0314,
        11.0641,
        11.0969,
        11.1299,
        11.1631,
        11.1964,
        11.2298,
        11.2634,
        11.2972,
        11.3311,
        11.3651,
        11.3993,
        11.4337,
        11.4682,
        11.5029,
        11.5377,
        11.5727,
        11.6079,
        11.6432,
        11.6786,
        11.7143,
        11.7501,
        11.786,
        11.8221,
        11.8584,
        11.8949,
        11.9315,
        11.9683,
        12.0053,
        12.0424,
        12.0797,
        12.1172,
        12.1549,
        12.1927,
        12.2307,
        12.2689,
        12.3073,
        12.3458,
        12.3846,
        12.4235,
        12.4626,
        12.5018,
        12.5413,
        12.581,
        12.6208,
        12.6608,
        12.7011,
        12.7415,
        12.7821,
        12.8229,
        12.8639,
        12.9051,
        12.9465,
        12.9881,
        13.0299,
        13.0719,
        13.1141,
        13.1565,
        13.1991,
        13.2419,
        13.2849,
        13.3282,
        13.3716,
        13.4153,
        13.4591,
        13.5032,
        13.5475,
        13.5921,
        13.6368,
        13.6818,
        13.727,
        13.7724,
        13.818,
        13.8639,
        13.91,
        13.9563,
        14.0029,
        14.0497,
        14.0967,
        14.144,
        14.1915,
        14.2392,
        14.2872,
        14.3354,
        14.3839,
        14.4326,
        14.4816,
        14.5308,
        14.5802,
        14.6299,
        14.6799,
        14.7301,
        14.7806,
        14.8314,
        14.8824,
        14.9337,
        14.9852,
        15.037,
        15.0891,
        15.1414,
        15.194,
        15.2469,
        15.3001,
        15.3536,
        15.4073,
        15.4613,
        15.5156,
        15.5702,
        15.625,
        15.6802,
        15.7357,
        15.7914,
        15.8474,
        15.9038,
        15.9604,
        16.0174,
        16.0746,
        16.1322,
        16.1901,
        16.2483,
        16.3067,
        16.3656,
        16.4247,
        16.4841,
        16.5439,
        16.604,
        16.6645,
        16.7252,
        16.7863,
        16.8477,
        16.9095,
        16.9716,
        17.0341,
        17.0969,
        17.16,
        17.2235,
        17.2873,
        17.3516,
        17.4161,
        17.481,
        17.5463,
        17.612,
        17.678,
        17.7444,
        17.8112,
        17.8783,
        17.9458,
        18.0137,
        18.082,
        18.1507,
        18.2198,
        18.2893,
        18.3591,
        18.4294,
        18.5001,
        18.5712,
        18.6427,
        18.7146,
        18.7869,
        18.8596,
        18.9328,
        19.0064,
        19.0804,
        19.1549,
        19.2298,
        19.3051,
        19.3809,
        19.4571,
        19.5338,
        19.6109,
        19.6885,
        19.7665,
        19.845,
        19.924,
        20.0035,
        20.0834,
        20.1638,
        20.2447,
        20.3261,
        20.408,
        20.4903,
        20.5732,
        20.6566,
        20.7405,
        20.8249,
        20.9098,
        20.9952,
        21.0811,
        21.1676,
        21.2546,
        21.3422,
        21.4303,
        21.5189,
        21.6081,
        21.6979,
        21.7882,
        21.8791,
        21.9705,
        22.0625,
        22.1551,
        22.2483,
        22.3421,
        22.4364,
        22.5314,
        22.627,
        22.7232,
        22.8199,
        22.9174,
        23.0154,
        23.1141,
        23.2134,
        23.3133,
        23.4139,
        23.5151,
        23.617,
        23.7196,
        23.8228,
        23.9268,
        24.0314,
        24.1366,
        24.2426,
        24.3493,
        24.4567,
        24.5647,
        24.6736,
        24.7831,
        24.8933,
        25.0043,
        25.1161,
        25.2286,
        25.3418,
        25.4559,
        25.5707,
        25.6862,
        25.8026,
        25.9197,
        26.0377,
        26.1564,
        26.276,
        26.3964,
        26.5176,
        26.6396,
        26.7625,
        26.8863,
        27.0109,
        27.1364,
        27.2627,
        27.39,
        27.5181,
        27.6471,
        27.7771,
        27.9079,
        28.0397,
        28.1725,
        28.3061,
        28.4407,
        28.5763,
        28.7129,
        28.8504,
        28.989,
        29.1285,
        29.269,
        29.4106,
        29.5532,
        29.6968,
        29.8415,
        29.9872,
        30.134,
        30.2819,
        30.4309,
        30.581,
        30.7322,
        30.8845,
        31.0379,
        31.1925,
        31.3483,
        31.5052,
        31.6633,
        31.8226,
        31.9832,
        32.1449,
        32.3078,
        32.472,
        32.6375,
        32.8042,
        32.9722,
        33.1415,
        33.3121,
        33.484,
        33.6573,
        33.8319,
        33.9637,
        34.0521,
        34.1407,
        34.2298,
        34.3191,
        34.4088,
        34.4989,
        34.5893,
        34.6801,
        34.7712,
        34.8627,
        34.9546,
        35.0468,
        35.1394,
        35.2324,
        35.3257,
        35.4194,
        35.5135,
        35.6079,
        35.7027,
        35.7979,
        35.8935,
        35.9895,
        36.0858,
        36.1826,
        36.2797,
        36.3772,
        36.4751,
        36.5734,
        36.6721,
        36.7713,
        36.8708,
        36.9707,
        37.071,
        37.1717,
        37.2729,
        37.3744,
        37.4764,
        37.5788,
        37.6816,
        37.7848,
        37.8885,
        37.9926,
        38.0971,
        38.202,
        38.3074,
        38.4132,
        38.5195,
        38.6262,
        38.7333,
        38.8409,
        38.9489,
        39.0574,
        39.1663,
        39.2757,
        39.3856,
        39.4959,
        39.6067,
        39.7179,
        39.8297,
        39.9418,
        40.0545,
        40.1676,
        40.2813,
        40.3954,
        40.51,
        40.625,
        40.7406,
        40.8567,
        40.9732,
        41.0903,
        41.2078,
        41.3259,
        41.4445,
        41.5636,
        41.6832,
        41.8033,
        41.9239,
        42.0451,
        42.1668,
        42.289,
        42.4117,
        42.535,
        42.6588,
        42.7832,
        42.9081,
        43.0336,
        43.1596,
        43.2861,
        43.4132,
        43.5409,
        43.6692,
        43.798,
        43.9273,
        44.0573,
        44.1878,
        44.3189,
        44.4506,
        44.5829,
        44.7158,
        44.8493,
        44.9833,
        45.118,
        45.2533,
        45.3892,
        45.5257,
        45.6628,
        45.8005,
        45.9389,
        46.0779,
        46.2175,
        46.3577,
        46.4986,
        46.6402,
        46.7824,
        46.9252,
        47.0687,
        47.2128,
        47.3577,
        47.5031,
        47.6493,
        47.7961,
        47.9436,
        48.0918,
        48.2407,
        48.3903,
        48.5405,
        48.6915,
        48.8432,
        48.9956,
        49.1487,
        49.3025,
        49.457,
        49.6123,
        49.7683,
        49.925,
        50.0825,
        50.2407,
        50.3997,
        50.5595,
        50.72,
        50.8812,
        51.0432,
        51.206,
        51.3696,
        51.534,
        51.6992,
        51.8651,
        52.0319,
        52.1994,
        52.3678,
        52.537,
        52.707,
        52.8778,
        53.0495,
        53.222,
        53.3954,
        53.5696,
        53.7446,
        53.9205,
        54.0973,
        54.2749,
        54.4535,
        54.6329,
        54.8132,
        54.9943,
        55.1764,
        55.3594,
        55.5433,
        55.7282,
        55.9139,
        56.1006,
        56.2882,
        56.4767,
        56.6662,
        56.8567,
        57.0481,
        57.2405,
        57.4339,
        57.6282,
        57.8236,
        58.0199,
        58.2172,
        58.4156,
        58.6149,
        58.8153,
        59.0167,
        59.2191,
        59.4226,
        59.6272,
        59.8328,
        60.0394,
        60.2471,
        60.456,
        60.6659,
        60.8769,
        61.0889,
        61.3022,
        61.5165,
        61.7319,
        61.9485,
        62.1662,
        62.3851,
        62.6052,
        62.8264,
        63.0487,
        63.2723,
        63.497,
        63.723,
        63.9501,
        64.1785,
        64.4081,
        64.639,
        64.871,
        65.1044,
        65.339,
        65.5748,
        65.812,
        66.0504,
        66.2901,
        66.5311,
        66.7735,
        67.0172,
        67.2622,
        67.5085,
        67.7563,
        68.0053,
        68.2558,
        68.5076,
        68.7609,
        69.0155,
        69.2716,
        69.5291,
        69.788,
        70.0484,
        70.3102,
        70.5736,
        70.8383,
        71.1046,
        71.3724,
        71.6417,
        71.9126,
        72.1849,
        72.4589,
        72.7343,
        73.0114,
        73.29,
        73.5703,
        73.8521,
        74.1356,
        74.4207,
        74.7075,
        74.9959,
        75.286,
        75.5778,
        75.8713,
        76.1664,
        76.4634,
        76.762,
        77.0624,
        77.3646,
        77.6686,
        77.9743,
        78.2819,
        78.5913,
        78.9025,
        79.2156,
        79.5305,
        79.8473,
        80.1661,
        80.4867,
        80.8093,
        81.1338,
        81.4602,
        81.7887,
        82.1191,
        82.4515,
        82.786,
        83.1225,
        83.461,
        83.8016,
        84.1444,
        84.4892,
        84.8361,
        85.1852,
        85.5365,
        85.8899,
        86.2455,
        86.6033,
        86.9634,
        87.3257,
        87.6903,
        88.0571,
        88.4263,
        88.7978,
        89.1717,
        89.5479,
        89.9265,
        90.3075,
        90.6909,
        91.0768,
        91.4652,
        91.856,
        92.2493,
        92.6452,
        93.0437,
        93.4447,
        93.8483,
        94.2545,
        94.6634,
        95.0749,
        95.4891,
        95.9061,
        96.3257,
        96.7482,
        97.1734,
        97.6014,
        98.0323,
        98.466,
        98.9026,
        99.3422,
        99.7846,
        100.23,
        100.6785,
        101.1299,
        101.5843,
        102.0419,
        102.5025,
        102.9663,
        103.4332,
        103.9033,
        104.3766,
        104.8532,
        105.333,
        105.8161,
        106.3026,
        106.7924,
        107.2856,
        107.7822,
        108.2823,
        108.7859,
        109.293,
        109.8037,
        110.3179,
        110.8358,
        111.3573,
        111.8825,
        112.4115,
        112.9442,
        113.4807,
        114.021,
        114.5652,
        115.1133,
        115.6653,
        116.2213,
        116.7814,
        117.3455,
        117.9137,
        118.486,
        119.0625,
        119.6432,
        120.2282,
        120.8175,
        121.4111,
        122.0091,
        122.6116,
        123.2185,
        123.8299,
        124.4459,
        125.0665,
        125.6918,
        126.3217,
        126.9564,
        127.596,
        128.2403,
        128.8895,
        129.5437,
        130.2029,
        130.8671,
        131.5364,
        132.2109,
        132.8906,
        133.5755,
        134.2657,
        134.9613,
        135.6623,
        136.3688,
        137.0808,
        137.7984,
        138.5217,
        139.2507,
        139.9854,
        140.726,
        141.4724,
        142.2248,
        142.9833,
        143.7478,
        144.5185,
        145.2954,
        146.0785,
        146.868,
        147.664,
        148.4664,
        149.2754,
        150.091,
        150.9133,
        151.7424,
        152.5783,
        153.4212,
        154.271,
        155.128,
        155.9921,
        156.8634,
        157.7421,
        158.6282,
        159.5217,
        160.4229,
        161.3316,
        162.2482,
        163.1725,
        164.1048,
        165.0451,
        165.9935,
        166.9501,
        167.915,
        168.8883,
        169.8701,
        170.8605,
        171.8595,
        172.8673,
        173.8841,
        174.9098,
        175.9446,
        176.9886,
        178.042,
        179.1048,
        180.1771,
        181.2591,
        182.3509,
        183.4525,
        184.5642,
        185.686,
        186.8181,
        187.9605,
        189.1135,
        190.2771,
        191.4515,
        192.6368,
        193.8331,
        195.0406,
        196.2594,
        197.4897,
        198.7316,
        199.9852,
        201.2508,
        202.5283,
        203.8181,
        205.1203,
        206.435,
        207.7623,
        209.1025,
        210.4557,
        211.8221,
        213.2018,
        214.5951,
        216.0021,
        217.4229,
        218.8578,
        220.307,
        221.7706,
        223.2488,
        224.7419,
        226.25,
        227.7733,
        229.312,
        230.8665,
        232.4367,
        234.0231,
        235.6257,
        237.2449,
        238.8808,
        240.5336,
        242.2037,
        243.8913,
        245.5965,
        247.3197,
        249.0611,
        250.821,
        252.5995,
        254.3971,
        256.2139,
        258.0503,
        259.9064,
        261.7827,
        263.6793,
        265.5967,
        267.535,
        269.4946,
        271.4758,
        273.479,
        275.5044,
        277.5524,
        279.6233,
        281.7175,
        283.8353,
        285.9771,
        288.1432,
        290.334,
        292.5498,
        294.7912,
        297.0584,
        299.3519,
        301.672,
        304.0192,
        306.3939,
        308.7965,
        311.2276,
        313.6874,
        316.1765,
        318.6953,
        321.2444,
        323.8242,
        326.4352,
        329.0779,
        331.7528,
        333.4412,
        334.1202,
        334.8012,
        335.4844,
        336.1696,
        336.8569,
        337.5464,
        338.2379,
        338.9316,
        339.6274,
        340.3254,
        341.0255,
        341.7278,
        342.4323,
        343.1389,
        343.8477,
        344.5588,
        345.272,
        345.9874,
        346.7051,
        347.425,
        348.1472,
        348.8716,
        349.5983,
        350.3272,
        351.0585,
        351.792,
        352.5278,
        353.2659,
        354.0064,
        354.7492,
        355.4943,
        356.2418,
        356.9916,
        357.7438,
        358.4984,
        359.2554,
        360.0147,
        360.7765,
        361.5407,
        362.3074,
        363.0764,
        363.848,
        364.622,
        365.3984,
        366.1774,
        366.9588,
        367.7427,
        368.5292,
        369.3182,
        370.1097,
        370.9038,
        371.7004,
        372.4996,
        373.3014,
        374.1057,
        374.9127,
        375.7223,
        376.5345,
        377.3493,
        378.1668,
        378.987,
        379.8098,
        380.6353,
        381.4635,
        382.2944,
        383.128,
        383.9644,
        384.8035,
        385.6453,
        386.4899,
        387.3373,
        388.1875,
        389.0405,
        389.8963,
        390.7549,
        391.6164,
        392.4807,
        393.3479,
        394.2179,
        395.0909,
        395.9667,
        396.8455,
        397.7272,
        398.6118,
        399.4994,
        400.39,
        401.2835,
        402.1801,
        403.0796,
        403.9822,
        404.8878,
        405.7964,
        406.7081,
        407.6229,
        408.5408,
        409.4618,
        410.3859,
        411.3131,
        412.2435,
        413.177,
        414.1137,
        415.0536,
        415.9967,
        416.943,
        417.8926,
        418.8454,
        419.8014,
        420.7608,
        421.7234,
        422.6894,
        423.6586,
        424.6312,
        425.6072,
        426.5865,
        427.5692,
        428.5553,
        429.5448,
        430.5378,
        431.5342,
        432.534,
        433.5374,
        434.5442,
        435.5546,
        436.5684,
        437.5859,
        438.6068,
        439.6314,
        440.6596,
        441.6913,
        442.7267,
        443.7657,
        444.8084,
        445.8548,
        446.9049,
        447.9587,
        449.0162,
        450.0775,
        451.1425,
        452.2113,
        453.2839,
        454.3604,
        455.4407,
        456.5248,
        457.6128,
        458.7047,
        459.8006,
        460.9003,
        462.004,
        463.1117,
        464.2234,
        465.339,
        466.4587,
        467.5825,
        468.7103,
        469.8422,
        470.9782,
        472.1183,
        473.2626,
        474.411,
        475.5636,
        476.7204,
        477.8815,
        479.0468,
        480.2163,
        481.3902,
        482.5684,
        483.7509,
        484.9377,
        486.1289,
        487.3245,
        488.5246,
        489.729,
        490.938,
        492.1514,
        493.3693,
        494.5917,
        495.8187,
        497.0503,
        498.2864,
        499.5272,
        500.7726,
        502.0227,
        503.2774,
        504.5369,
        505.8011,
        507.0701,
        508.3438,
        509.6224,
        510.9058,
        512.194,
        513.4871,
        514.7851,
        516.0881,
        517.396,
        518.7088,
        520.0267,
        521.3496,
        522.6776,
        524.0106,
        525.3488,
        526.6921,
        528.0405,
        529.3941,
        530.753,
        532.117,
        533.4864,
        534.861,
        536.241,
        537.6263,
        539.0169,
        540.413,
        541.8145,
        543.2215,
        544.6339,
        546.0519,
        547.4754,
        548.9045,
        550.3392,
        551.7795,
        553.2255,
        554.6772,
        556.1346,
        557.5977,
        559.0667,
        560.5414,
        562.022,
        563.5085,
        565.0008,
        566.4991,
        568.0034,
        569.5137,
        571.03,
        572.5523,
        574.0808,
        575.6154,
        577.1561,
        578.7031,
        580.2563,
        581.8157,
        583.3814,
        584.9535,
        586.5319,
        588.1167,
        589.708,
        591.3057,
        592.9099,
        594.5207,
        596.138,
        597.7619,
        599.3925,
        601.0298,
        602.6738,
        604.3245,
        605.982,
        607.6464,
        609.3176,
        610.9957,
        612.6808,
        614.3729,
        616.0719,
        617.7781,
        619.4913,
        621.2116,
        622.9392,
        624.6739,
        626.4159,
        628.1652,
        629.9219,
        631.6859,
        633.4574,
        635.2363,
        637.0227,
        638.8166,
        640.6182,
        642.4273,
        644.2442,
        646.0688,
        647.9011,
        649.7412,
        651.5892,
        653.4451,
        655.3089,
        657.1807,
        659.0606,
        660.9485,
        662.8445,
        664.7487,
        666.6612,
        668.5819,
        670.5109,
        672.4482,
        674.394,
        676.3482,
        678.311,
        680.2823,
        682.2622,
        684.2507,
        686.248,
        688.254,
        690.2689,
        692.2926,
        694.3252,
        696.3667,
        698.4173,
        700.477,
        702.5458,
        704.6237,
        706.7109,
        708.8074,
        710.9132,
        713.0284,
        715.1531,
        717.2873,
        719.431,
        721.5844,
        723.7475,
        725.9203,
        728.1029,
        730.2954,
        732.4977,
        734.7101,
        736.9325,
        739.165,
        741.4076,
        743.6605,
        745.9237,
        748.1972,
        750.4811,
        752.7755,
        755.0804,
        757.3959,
        759.7221,
        762.0591,
        764.4068,
        766.7654,
        769.1349,
        771.5155,
        773.9071,
        776.3098,
        778.7237,
        781.149,
        783.5855,
        786.0335,
        788.493,
        790.964,
        793.4467,
        795.9411,
        798.4472,
        800.9652,
        803.4952,
        806.0371,
        808.5912,
        811.1574,
        813.7358,
        816.3265,
        818.9297,
        821.5453,
        824.1734,
        826.8142,
        829.4677,
        832.134,
        834.8132,
        837.5053,
        840.2105,
        842.9288,
        845.6603,
        848.4051,
        851.1633,
        853.935,
        856.7202,
        859.5191,
        862.3317,
        865.1581,
        867.9985,
        870.8529,
        873.7214,
        876.604,
        879.501,
        882.4124,
        885.3382,
        888.2786,
        891.2337,
        894.2035,
        897.1882,
        900.1879,
        903.2027,
        906.2326,
        909.2778,
        912.3384,
        915.4144,
        918.5061,
        921.6134,
        924.7365,
        927.8755,
        931.0306,
        934.2017,
        937.3891,
        940.5928,
        943.813,
        947.0497,
        950.3031,
        953.5733,
        956.8605,
        960.1646,
        963.4859,
        966.8244,
        970.1804,
        973.5538,
        976.9449,
        980.3537,
        983.7804,
        987.2251,
        990.6879,
        994.1689,
        997.6684,
        1001.1863,
        1004.7229,
        1008.2782,
        1011.8525,
        1015.4458,
        1019.0583,
        1022.6901,
        1026.3413,
        1030.0121,
        1033.7027,
        1037.4131,
        1041.1436,
        1044.8942,
        1048.6651,
        1052.4564,
        1056.2684,
        1060.1011,
        1063.9547,
        1067.8293,
        1071.7252,
        1075.6424,
        1079.5811,
        1083.5415,
        1087.5237,
        1091.528,
        1095.5543,
        1099.603,
        1103.6742,
        1107.7681,
        1111.8847,
        1116.0244,
        1120.1872,
        1124.3733,
        1128.583,
        1132.8163,
        1137.0735,
        1141.3548,
        1145.6603,
        1149.9901,
        1154.3446,
        1158.7239,
        1163.1281,
        1167.5575,
        1172.0122,
        1176.4925,
        1180.9985,
        1185.5304,
        1190.0885,
        1194.6729,
        1199.2839,
        1203.9216,
        1208.5863,
        1213.2781,
        1217.9973,
        1222.7441,
        1227.5187,
        1232.3213,
        1237.1521,
        1242.0114,
        1246.8994,
        1251.8164,
        1256.7624,
        1261.7378,
        1266.7429,
        1271.7777,
        1276.8427,
        1281.9379,
        1287.0638,
        1292.2204,
        1297.4081,
        1302.6271,
        1307.8776,
        1313.1599,
        1318.4744,
        1323.8211,
        1329.2004,
        1334.6126,
        1340.0579,
        1345.5366,
        1351.049,
        1356.5953,
        1362.1759,
        1367.7909,
        1373.4407,
        1379.1256,
        1384.8459,
        1390.6019,
        1396.3938,
        1402.2219,
        1408.0867,
        1413.9883,
        1419.9271,
        1425.9033,
        1431.9174,
        1437.9696,
        1444.0603,
        1450.1897,
        1456.3583,
        1462.5663,
        1468.8141,
        1475.102,
        1481.4303,
        1487.7995,
        1494.2098,
        1500.6617,
        1507.1554,
        1513.6914,
        1520.2699,
        1526.8915,
        1533.5564,
        1540.265,
        1547.0178,
        1553.8151,
        1560.6572,
        1567.5447,
        1574.4779,
        1581.4571,
        1588.4829,
        1595.5556,
        1602.6756,
        1609.8434,
        1617.0594,
        1624.324,
        1631.6377,
        1639.0008,
        1646.414,
        1653.8775,
        1661.3919,
        1668.9577,
        1676.5752,
        1684.245,
        1691.9676,
        1699.7434,
        1707.5729,
        1715.4567,
        1723.3951,
        1731.3888,
        1739.4383,
        1747.544,
        1755.7065,
        1763.9263,
        1772.204,
        1780.5401,
        1788.9352,
        1797.3897,
        1805.9044,
        1814.4797,
        1823.1162,
        1831.8145,
        1840.5752,
        1849.3989,
        1858.2863,
        1867.2378,
        1876.2542,
        1885.336,
        1894.484,
        1903.6986,
        1912.9807,
        1922.3308,
        1931.7497,
        1941.2379
      ],
      "1": [
        72.0398,
        70.9182,
        63.9225,
        66.9641,
        63.6225,
        61.2413,
        58.7459,
        58.9757,
        57.1037,
        53.2006,
        56.1408,
        52.8884,
        51.4655,
        50.5996,
        48.8898,
        48.1763,
        48.8979,
        46.8411,
        44.5424,
        42.8696,
        45.2016,
        39.3706,
        40.7379,
        41.4662,
        38.3781,
        38.6228,
        37.1511,
        38.9985,
        37.4408,
        37.0521,
        38.2259,
        40.0381,
        34.9017,
        34.3753,
        35.2825,
        33.5413,
        32.9788,
        31.8882,
        32.7588,
        30.0826,
        30.7253,
        30.6479,
        29.0453,
        28.3351,
        26.9749,
        26.5816,
        27.0134,
        25.0582,
        28.1981,
        24.2943,
        24.8048,
        24.9368,
        24.4237,
        22.3742,
        23.0579,
        22.4006,
        22.9271,
        22.2592,
        21.2139,
        21.0553,
        21.4666,
        20.9871,
        20.611,
        19.0746,
        19.5866,
        18.8486,
        18.6479,
        17.9285,
        17.4818,
        17.6733,
        17.6063,
        16.4057,
        17.8271,
        17.0559,
        15.2568,
        15.1286,
        15.1188,
        15.2064,
        15.2871,
        14.1533,
        14.8248,
        13.9763,
        13.9468,
        14.1473,
        13.4137,
        12.4587,
        13.1238,
        12.4855,
        12.5782,
        11.8211,
        11.6154,
        11.2726,
        11.0458,
        11.0922,
        10.7133,
        10.8297,
        10.9549,
        11.1105,
        10.7958,
        11.4143,
        10.0537,
        11.3822,
        9.3894,
        7.4878,
        9.3613,
        10.0561,
        12.3078,
        11.4088,
        9.4105,
        8.1435,
        8.7891,
        11.831,
        10.0223,
        11.8819,
        11.1787,
        8.0558,
        10.895,
        9.5113,
        10.8358,
        10.5494,
        6.3316,
        8.2397,
        11.599,
        9.011,
        9.7116,
        9.0465,
        11.0069,
        11.4836,
        11.8054,
        10.7842,
        12.5089,
        10.228,
        9.6694,
        8.633,
        7.8868,
        9.5639,
        9.126,
        8.413,
        8.3384,
        9.8418,
        7.8517,
        9.7027,
        6.5709,
        7.3267,
        9.1092,
        10.0584,
        9.4262,
        10.3859,
        11.2627,
        9.3143,
        10.3321,
        8.3358,
        10.3022,
        10.6098,
        9.5487,
        8.8372,
        11.1779,
        10.3218,
        8.6516,
        10.9063,
        9.2298,
        8.6838,
        9.7096,
        7.5301,
        9.6487,
        7.5235,
        8.9642,
        8.2056,
        8.6894,
        8.4743,
        7.6521,
        9.2412,
        9.5273,
        8.756,
        10.0777,
        8.4776,
        9.3786,
        9.9787,
        9.505,
        7.0741,
        9.3762,
        7.0045,
        8.9675,
        8.8385,
        7.9868,
        7.4268,
        9.7335,
        9.7812,
        7.8029,
        8.2739,
        9.3636,
        9.0052,
        10.2025,
        9.7529,
        6.4091,
        6.8398,
        7.3184,
        6.6527,
        10.2513,
        9.0783,
        8.4854,
        8.8183,
        8.9986,
        6.9213,
        9.8422,
        10.3373,
        8.1941,
        7.493,
        6.8479,
        8.2079,
        10.3481,
        9.7577,
        8.7375,
        6.9536,
        8.2482,
        7.7516,
        8.3857,
        8.5114,
        10.6336,
        12.8121,
        8.8688,
        8.1449,
        6.966,
        9.2589,
        7.8257,
        9.7434,
        7.9818,
        9.3719,
        7.8571,
        7.1649,
        8.7358,
        7.6056,
        9.1798,
        6.8454,
        8.971,
        10.4141,
        6.8193,
        6.9754,
        10.0708,
        8.9023,
        7.7182,
        5.5538,
        10.996,
        8.4028,
        8.4923,
        7.5347,
        9.3561,
        8.1756,
        9.8359,
        8.8405,
        10.8092,
        9.6688,
        8.1658,
        9.0527,
        8.6278,
        6.575,
        7.9636,
        8.9202,
        7.6197,
        8.6312,
        9.035,
        8.0054,
        8.906,
        7.412,
        7.589,
        7.4977,
        6.7851,
        8.4651,
        9.4606,
        6.6547,
        8.5418,
        8.0126,
        6.6665,
        8.4317,
        10.0836,
        7.7431,
        6.5921,
        7.826,
        6.0236,
        7.7027,
        8.3088,
        9.5392,
        8.8903,
        7.1575,
        9.1484,
        8.1678,
        8.8126,
        7.9373,
        8.7725,
        7.9399,
        8.6676,
        9.024,
        8.5812,
        8.1707,
        7.9554,
        7.7231,
        8.9511,
        7.6894,
        7.6866,
        9.1277,
        8.3407,
        8.5609,
        8.1275,
        9.4155,
        9.6394,
        9.6225,
        9.9307,
        7.7742,
        7.775,
        10.0578,
        9.4284,
        7.7634,
        8.5952,
        10.0419,
        10.1193,
        7.3717,
        7.9144,
        6.5064,
        8.2009,
        7.6451,
        8.5345,
        8.9815,
        10.7989,
        7.5611,
        7.8004,
        6.8319,
        5.5366,
        7.5228,
        9.9036,
        8.3107,
        6.3329,
        5.8558,
        9.9623,
        8.1264,
        10.9234,
        9.025,
        10.1415,
        7.1093,
        5.3069,
        8.4931,
        7.2113,
        7.9303,
        11.2311,
        8.6768,
        7.0294,
        9.6729,
        6.2516,
        6.7365,
        10.2874,
        5.6936,
        9.7192,
        10.4386,
        5.7906,
        5.8701,
        5.8972,
        6.966,
        5.724,
        6.6274,
        8.6209,
        11.2053,
        6.99,
        2.9654,
        8.8092,
        8.9489,
        8.3387,
        6.8056,
        10.1984,
        9.6918,
        8.7488,
        5.7383,
        9.7312,
        8.4195,
        12.3196,
        10.746,
        9.0823,
        11.0448,
        8.932,
        9.0674,
        11.8079,
        12.5913,
        13.6965,
        13.3616,
        11.749,
        11.1167,
        10.0251,
        11.7085,
        11.602,
        14.6842,
        15.4883,
        13.0638,
        12.7037,
        16.4997,
        10.5918,
        13.053,
        14.1934,
        15.0542,
        13.7115,
        17.3233,
        14.0816,
        17.8195,
        20.1129,
        17.5859,
        17.2489,
        17.6469,
        22.1527,
        22.3257,
        23.0696,
        21.9385,
        28.5573,
        24.8393,
        28.9049,
        29.5544,
        32.4167,
        38.3697,
        43.5353,
        44.8171,
        45.3085,
        51.1134,
        58.963,
        76.7765,
        85.1008,
        102.145,
        127.8591,
        166.793,
        222.8835,
        298.7966,
        407.8218,
        539.6187,
        674.3594,
        792.2085,
        809.76,
        785.8367,
        674.7581,
        537.4746,
        401.4636,
        289.0986,
        195.1897,
        144.0754,
        105.4716,
        77.4967,
        59.6047,
        47.1066,
        36.2697,
        30.659,
        25.2909,
        25.5487,
        18.8748,
        16.5037,
        17.1834,
        14.9922,
        14.6663,
        13.3282,
        10.2335,
        10.1189,
        9.1106,
        10.057,
        10.7655,
        10.4411,
        8.3499,
        11.4896,
        9.6267,
        7.5651,
        7.6744,
        8.2287,
        8.9746,
        8.0204,
        1.9968,
        4.9521,
        6.2424,
        6.1181,
        7.8113,
        4.6469,
        9.0544,
        6.5911,
        5.6518,
        6.0874,
        6.3448,
        5.5953,
        5.1365,
        3.1051,
        5.2571,
        6.7199,
        5.2561,
        5.7018,
        6.8416,
        3.3336,
        5.5674,
        5.4653,
        4.2888,
        7.1525,
        5.6191,
        4.8723,
        4.6293,
        3.0189,
        4.7313,
        6.5704,
        2.8712,
        3.6122,
        5.7987,
        5.0358,
        6.0692,
        3.8446,
        6.2468,
        6.8191,
        4.6288,
        6.9251,
        8.1459,
        4.25,
        6.7728,
        5.3252,
        6.8427,
        8.3679,
        6.3557,
        7.1349,
        7.0627,
        7.6216,
        8.0321,
        8.4784,
        9.8405,
        10.5002,
        12.2583,
        12.7481,
        11.7165,
        10.4751,
        11.9069,
        12.6251,
        13.5037,
        13.4355,
        15.6241,
        16.1006,
        15.8949,
        20.5535,
        19.4696,
        23.5052,
        26.4235,
        28.548,
        32.5676,
        35.0674,
        37.0488,
        43.5407,
        53.0885,
        59.8087,
        67.5932,
        82.2645,
        101.9224,
        125.1581,
        151.7748,
        201.8274,
        267.198,
        356.698,
        491.8232,
        663.5645,
        868.9312,
        1006.0364,
        1074.5835,
        1032.5063,
        904.3904,
        738.6194,
        569.3118,
        449.2805,
        337.4148,
        273.0867,
        218.4918,
        181.1098,
        155.5249,
        136.0299,
        120.8615,
        111.0916,
        97.5219,
        91.3795,
        90.9332,
        87.1158,
        80.0856,
        83.0387,
        83.0854,
        92.122,
        102.1658,
        122.3482,
        160.3787,
        242.6903,
        354.6736,
        463.5986,
        473.7214,
        371.9221,
        233.3779,
        118.2897,
        58.0599,
        27.9591,
        17.4847,
        13.923,
        12.0586,
        10.9912,
        9.9735,
        11.2767,
        11.4417,
        11.214,
        9.6263,
        11.75,
        11.8654,
        11.0723,
        10.661,
        10.7266,
        11.5046,
        9.7392,
        11.1749,
        11.2513,
        11.5809,
        11.3955,
        10.8979,
        13.3628,
        13.1945,
        11.3025,
        11.9295,
        12.414,
        11.319,
        11.8033,
        13.9052,
        12.3635,
        13.7781,
        12.7965,
        16.2027,
        13.874,
        14.6033,
        14.7279,
        16.3084,
        19.3023,
        18.7259,
        19.149,
        23.3208,
        26.2045,
        29.7188,
        31.2899,
        37.7519,
        46.2139,
        56.0326,
        76.2984,
        112.355,
        174.9361,
        264.5867,
        329.7505,
        309.7043,
        218.3769,
        135.0368,
        101.095,
        160.4638,
        354.3203,
        633.2478,
        747.8779,
        631.0134,
        388.3701,
        223.0196,
        139.7354,
        100.7547,
        86.1451,
        81.5385,
        80.0616,
        83.0762,
        86.5165,
        95.4686,
        98.8946,
        107.3247,
        114.2672,
        111.4595,
        111.3723,
        104.867,
        94.0519,
        87.2402,
        73.7452,
        65.9351,
        54.755,
        51.7028,
        44.3925,
        38.8079,
        33.6108,
        29.9852,
        28.7813,
        24.8387,
        22.2905,
        21.6397,
        21.3492,
        18.9527,
        17.8662,
        16.7829,
        16.1501,
        15.11,
        15.9785,
        15.2861,
        14.553,
        16.3129,
        15.0437,
        18.7069,
        18.1127,
        22.3411,
        26.0827,
        35.1648,
        59.7784,
        135.9768,
        311.9087,
        520.4736,
        494.3828,
        275.1416,
        118.2242,
        50.5712,
        25.5704,
        16.0592,
        11.6027,
        9.1711,
        7.7276,
        5.7886,
        5.2388,
        5.6316,
        4.3522,
        4.5031,
        5.0631,
        4.9919,
        4.1145,
        4.4488,
        5.3125,
        4.7484,
        4.8779,
        4.0495,
        3.4111,
        3.4809,
        4.6787,
        3.3112,
        4.1841,
        3.7468,
        3.2932,
        3.3527,
        3.0705,
        3.9012,
        2.4937,
        3.4382,
        3.4615,
        3.0927,
        3.5972,
        4.0716,
        3.4103,
        2.6471,
        3.0334,
        3.1324,
        3.1624,
        2.2315,
        4.469,
        4.7971,
        5.1403,
        4.4877,
        6.1549,
        5.8508,
        6.8053,
        10.2102,
        12.8033,
        17.3752,
        28.75,
        59.2286,
        178.2207,
        466.8113,
        641.9922,
        407.6602,
        165.9102,
        69.1872,
        34.7071,
        22.6984,
        15.8501,
        12.6474,
        10.7618,
        8.1683,
        8.9981,
        7.9416,
        7.6947,
        8.0668,
        8.9056,
        14.4564,
        23.0021,
        18.7163,
        7.8851,
        4.6611,
        3.0888,
        3.2972,
        3.7887,
        3.7209,
        2.88,
        3.2089,
        3.5817,
        4.0573,
        3.9572,
        4.1987,
        4.7724,
        6.1865,
        6.1044,
        8.3952,
        10.7668,
        23.2366,
        85.0824,
        240.4232,
        236.3235,
        88.5202,
        26.2177,
        10.3779,
        5.3081,
        3.869,
        3.5707,
        6.7501,
        7.8934,
        4.4051,
        2.874,
        2.2471,
        2.0946,
        1.9042,
        1.0524,
        2.471,
        1.8843,
        1.9131,
        1.8255,
        1.8176,
        1.8491,
        1.4866,
        1.8429,
        1.8211,
        0.8732,
        0.9056,
        1.1975,
        1.1326,
        1.303,
        1.2511,
        1.6839,
        1.3746,
        1.5646,
        1.2044,
        1.7084,
        1.3898,
        0.9445,
        1.6374,
        1.6366,
        1.9949,
        3.6254,
        9.2737,
        30.5108,
        40.6701,
        18.3857,
        7.4732,
        3.3967,
        2.5012,
        1.9513,
        1.9078,
        1.4602,
        2.0785,
        1.5598,
        2.2551,
        2.3853,
        1.14,
        1.2926,
        1.5329,
        1.2121,
        2.0452,
        2.2159,
        1.2604,
        2.0571,
        1.4197,
        2.1476,
        1.1138,
        1.652,
        2.5722,
        4.3656,
        6.521,
        7.6404,
        5.3364,
        3.0478,
        2.082,
        1.5805,
        1.105,
        1.1561,
        0.9389,
        1.13,
        1.4445,
        1.554,
        1.0651,
        1.3824,
        1.2134,
        1.9775,
        1.2654,
        1.8967,
        1.2115,
        1.5874,
        1.597,
        1.9048,
        1.236,
        1.3622,
        1.4158,
        1.7572,
        1.0509,
        1.8087,
        1.3555,
        1.0963,
        1.6686,
        2.1118,
        1.5417,
        1.6121,
        1.6418,
        1.3897,
        2.0204,
        1.5819,
        1.53,
        0.8514,
        1.3449,
        1.566,
        1.0923,
        1.9931,
        1.8373,
        1.2049,
        1.3668,
        1.8699,
        1.5905,
        1.5462,
        2.1824,
        1.7322,
        1.7902,
        3.0968,
        4.3194,
        14.0812,
        47.2432,
        91.3457,
        113.3187,
        124.8198,
        84.6454,
        35.8342,
        14.4434,
        7.6699,
        3.438,
        2.5545,
        2.2362,
        2.2041,
        2.0201,
        1.7956,
        1.0534,
        1.4563,
        2.3952,
        2.4026,
        1.6221,
        1.3674,
        1.9249,
        2.2983,
        3.4367,
        8.7756,
        37.845,
        94.2549,
        86.6233,
        35.9662,
        12.2541,
        6.6794,
        3.6285,
        3.0763,
        2.6826,
        2.1953,
        2.29,
        2.626,
        2.8461,
        3.2011,
        3.4757,
        3.566,
        3.7911,
        5.0945,
        6.2086,
        9.1938,
        13.9609,
        25.3396,
        54.6058,
        108.6978,
        136.3382,
        106.6133,
        61.2227,
        34.7365,
        22.8893,
        17.0368,
        13.843,
        14.28,
        14.9436,
        16.977,
        21.3489,
        29.7145,
        41.1874,
        51.1516,
        62.2413,
        92.0811,
        133.9115,
        92.8927,
        36.1305,
        18.9726,
        13.7293,
        10.6599,
        8.8366,
        7.4601,
        6.5552,
        6.5714,
        5.7105,
        5.6253,
        5.2385,
        9.5123,
        47.6212,
        163.5588,
        162.072,
        56.8124,
        19.5694,
        10.2928,
        7.4069,
        5.5821,
        4.8862,
        4.1911,
        3.912,
        3.4991,
        4.0375,
        4.4707,
        4.6036,
        5.2037,
        7.3327,
        18.6292,
        62.0384,
        67.6478,
        25.5531,
        12.2757,
        13.7342,
        21.3235,
        33.8601,
        56.0255,
        95.4565,
        155.7651,
        218.5423,
        238.3183,
        218.7405,
        175.9254,
        144.6357,
        117.1752,
        105.39,
        114.7686,
        218.0164,
        354.2705,
        243.318,
        108.6456,
        72.416,
        57.3098,
        51.6362,
        49.6045,
        46.4958,
        43.5286,
        42.7639,
        41.7017,
        41.1286,
        39.1099,
        38.7492,
        38.1077,
        35.5005,
        35.3966,
        45.5724,
        66.6828,
        55.215,
        32.4569,
        25.1322,
        20.5663,
        18.3312,
        14.5965,
        12.8949,
        14.9721,
        35.4181,
        122.1126,
        344.7847,
        446.6543,
        187.7858,
        75.3523,
        46.5521,
        34.5011,
        27.8926,
        23.4845,
        20.2487,
        18.5834,
        15.7381,
        14.5729,
        13.9853,
        12.0005,
        11.1541,
        10.6635,
        10.4121,
        10.2232,
        9.2817,
        8.4704,
        8.5121,
        8.1643,
        8.0868,
        8.4555,
        8.1385,
        8.5401,
        8.4548,
        9.6356,
        10.1551,
        12.3892,
        15.7802,
        27.8386,
        90.7923,
        112.0855,
        77.2961,
        445.0784,
        776.2854,
        274.3796,
        73.4767,
        36.0792,
        19.5234,
        12.8175,
        9.1691,
        7.6484,
        6.5504,
        5.9775,
        5.2966,
        4.7107,
        4.4047,
        4.4018,
        3.491,
        4.0559,
        5.3624,
        7.8545,
        14.3689,
        25.4458,
        37.2713,
        47.8751,
        52.4335,
        51.0637,
        52.4426,
        55.726,
        57.9019,
        66.3143,
        77.7606,
        95.4671,
        118.2565,
        147.6487,
        199.5757,
        241.1562,
        148.6889,
        101.3223,
        72.0529,
        51.8649,
        38.5968,
        28.6175,
        22.9293,
        18.9983,
        16.1117,
        14.3636,
        12.6161,
        13.0022,
        31.844,
        102.2739,
        36.604,
        15.2031,
        12.2576,
        11.2354,
        13.259,
        15.7021,
        13.6143,
        14.269,
        16.4598,
        20.6499,
        41.5898,
        54.1716,
        46.3699,
        55.5776,
        54.2085,
        40.2689,
        29.759,
        23.9565,
        21.4483,
        19.0408,
        19.5105,
        18.3116,
        17.1407,
        16.8801,
        15.8231,
        13.2848,
        12.546,
        13.8836,
        24.0234,
        12.3736,
        8.3558,
        8.1921,
        14.3444,
        25.5907,
        11.15,
        68.8387,
        99.3471,
        14.2623,
        6.3502,
        4.4523,
        3.5646,
        2.9102,
        3.3997,
        7.2713,
        2.9029,
        2.4231,
        1.5045,
        1.3355,
        1.6546,
        3.3094,
        6.4862,
        9.8827,
        13.3313,
        54.6191,
        63.8627,
        18.1157,
        11.3611,
        16.2636,
        160.9654,
        120.8526,
        16.9144,
        12.3496,
        38.9325,
        12.8008,
        5.8125,
        6.1617,
        12.0889,
        8.0838,
        6.6459,
        7.197,
        11.9451,
        15.5819,
        11.8885,
        14.6436,
        13.298,
        16.1988,
        20.9469,
        27.3371,
        35.2086,
        42.544,
        41.4256,
        32.756,
        34.8139,
        16.6295,
        9.6871,
        8.7998,
        50.1024,
        26.9608,
        5.4232,
        3.6978,
        3.4248,
        3.0889,
        2.5678,
        2.9106,
        19.9444,
        62.9623,
        20.853,
        3.1261,
        4.6202,
        27.3444,
        10.7179,
        11.3916,
        9.3313,
        17.4341,
        5.2007,
        3.2255,
        2.9125,
        2.8627,
        3.4659,
        4.7048,
        10.1342,
        41.8548,
        96.4644,
        31.2186,
        10.1342,
        5.087,
        3.366,
        3.0166,
        2.5281,
        3.7945,
        44.3196,
        9.664,
        17.1404,
        48.0151,
        4.8317,
        3.6792,
        10.0585,
        7.4627,
        2.8601,
        1.7218,
        1.8187,
        6.1504,
        10.8072,
        7.8882,
        4.9086,
        3.7247,
        3.0355,
        4.2852,
        8.6908,
        21.201,
        25.2655,
        13.0414,
        4.6047,
        3.9617,
        1.9972,
        5.276,
        1.5846,
        3.2778,
        35.3992,
        122.1517,
        38.4397,
        12.0391,
        58.2539,
        12.7707,
        10.7756,
        71.7493,
        92.5451,
        10.2486,
        10.6158,
        3.5227,
        2.5662,
        9.891,
        7.8342,
        6.2478,
        4.9429,
        11.5045,
        4.2626,
        21.7595,
        9.5837,
        5.0846,
        6.5556,
        9.5764,
        12.1315,
        13.5294,
        8.4565,
        14.7947,
        10.1754,
        16.3907,
        6.3329,
        7.7957,
        9.2857,
        4.882,
        27.6982,
        3.7811,
        4.4011,
        12.2648,
        10.9445,
        25.1694,
        7.7717,
        18.3548,
        16.0298,
        18.0173,
        29.018,
        38.0764,
        25.4481,
        13.9038,
        16.6294,
        11.51,
        59.1804,
        74.4994,
        48.0898,
        25.1612,
        16.0328,
        20.7706,
        9.3293,
        9.6354,
        10.1628,
        14.1017,
        5.6047,
        7.2199,
        15.3017,
        18.2662,
        19.7183,
        1.3077,
        15.4324,
        12.5826,
        8.626,
        5.6685,
        7.4414,
        3.1019,
        20.0365,
        16.2649,
        4.1404,
        4.1508,
        1.7797,
        2.3538,
        6.9499,
        6.0354,
        5.5736,
        22.2953,
        16.9197,
        4.3386,
        9.5667,
        8.3825,
        10.0932,
        4.7809,
        0.9128,
        0.8587,
        2.0289,
        19.266,
        33.52,
        7.4353,
        2.5272,
        5.7514,
        11.7146,
        11.7853,
        6.5542,
        3.9552,
        6.3702,
        36.9307,
        48.3087,
        8.3971,
        5.583,
        11.5169,
        5.631,
        3.6315,
        4.2987,
        3.2456,
        3.3974,
        3.6379,
        4.1094,
        4.3888,
        5.664,
        5.9174,
        4.0824,
        3.0857,
        3.98,
        4.5038,
        4.908,
        4.724,
        5.578,
        6.0422,
        6.5398,
        7.6343,
        8.3046,
        10.464,
        13.1491,
        12.2017,
        13.0694,
        11.9096,
        7.762,
        6.4521,
        6.1212,
        3.7976,
        6.7166,
        6.178,
        4.2492,
        4.0046,
        4.2839,
        4.8853,
        4.9351,
        5.3949,
        11.2658,
        22.5189,
        8.3906,
        4.5356,
        3.2287,
        1.6157,
        1.377,
        3.218,
        1.7972,
        2.4027,
        2.4415,
        1.8878,
        9.2035,
        16.1005,
        3.3319,
        5.2693,
        6.8228,
        1.7496,
        2.0251,
        4.3555,
        31.308,
        67.5465,
        15.3974,
        29.6987,
        59.8203,
        13.2654,
        7.1422,
        6.1051,
        3.4187,
        3.7025,
        2.3989,
        3.3048,
        16.7644,
        17.5502,
        3.2664,
        2.9777,
        4.8268,
        3.834,
        5.0318,
        5.1178,
        12.3398,
        12.4142,
        2.775,
        2.2161,
        3.782,
        4.9265,
        5.7966,
        6.4195,
        6.8931,
        8.6771,
        15.2186,
        16.3495,
        10.1342,
        7.8352,
        6.2074,
        3.6961,
        1.967,
        1.2385,
        2.1962,
        2.9708,
        1.903,
        2.1761,
        6.2703,
        22.6674,
        10.1062,
        1.9446,
        1.4225,
        1.227,
        1.1256,
        1.0971,
        3.1456,
        4.2233,
        4.7843,
        2.0136,
        6.297,
        39.6727,
        60.5316,
        31.5646,
        16.3664,
        8.5446,
        5.1178,
        7.2723,
        3.5406,
        2.2683,
        2.8797,
        5.0185,
        8.239,
        12.7716,
        11.0175,
        8.3397,
        6.3216,
        6.0253,
        6.6155,
        13.7738,
        9.3816,
        5.4257,
        3.9854,
        2.8592,
        1.8605,
        1.6328,
        2.607,
        3.2304,
        4.8161,
        14.121,
        18.4041,
        12.8464,
        19.4299,
        14.0913,
        9.1285,
        14.5732,
        4.3592,
        1.9599,
        1.3324,
        2.4092,
        9.3315,
        8.0532,
        21.4673,
        9.8654,
        7.3738,
        8.2843,
        15.426,
        76.1127,
        60.5269,
        15.9042,
        10.7842,
        10.2557,
        10.8417,
        12.336,
        15.4964,
        29.7581,
        30.0163,
        23.434,
        38.6264,
        36.2655,
        27.0639,
        25.9949,
        29.4818,
        53.9328,
        16.8089,
        6.8266,
        6.2945,
        5.0463,
        3.8101,
        5.4302,
        7.7589,
        15.0057,
        10.0974,
        8.8928,
        18.8066,
        10.5616,
        6.3419,
        8.5676,
        7.6617,
        30.5376,
        50.7908,
        20.2855,
        9.4409,
        12.7813,
        10.6513,
        28.464,
        47.9194,
        8.9548,
        4.545,
        1.863,
        2.1515,
        10.3355,
        13.5527,
        58.543,
        30.5669,
        8.2308,
        4.3818,
        2.4971,
        1.4078,
        1.2878,
        1.6002,
        1.7522,
        4.2264,
        2.7804,
        1.5688,
        1.8587,
        3.0575,
        4.546,
        8.2804,
        6.052,
        3.9812,
        3.473,
        6.0737,
        2.0477,
        5.3378,
        6.3313,
        1.9871,
        3.7142,
        2.0791,
        1.4039,
        1.3581,
        1.8242,
        4.4727,
        4.4139,
        4.3288,
        3.8371,
        3.4655,
        5.3841,
        11.0236,
        15.6248,
        11.5201,
        7.3093,
        7.1007,
        4.9286,
        2.3074,
        1.6383,
        2.6689,
        2.0068,
        1.3676,
        1.0357,
        0.9676,
        1.35,
        7.9086,
        17.2654,
        1.5416,
        0.8825,
        0.9124,
        1.152,
        1.5031,
        3.1388,
        3.1604,
        3.5807,
        2.4766,
        2.247,
        4.9933,
        10.6081,
        10.6413,
        5.8256,
        6.8482,
        3.1172,
        9.3018,
        3.1797,
        0.8387,
        0.6762,
        1.7941,
        2.1232,
        1.9458,
        5.2391,
        1.8079,
        3.1314,
        8.0594,
        2.6002,
        3.9168,
        1.3358,
        0.6104,
        0.5336,
        1.7148,
        1.4589,
        1.8655,
        6.7104,
        8.0811,
        13.5204,
        9.1346,
        1.9724,
        7.3681,
        6.15,
        3.3512,
        5.1611,
        12.3581,
        16.3624,
        16.3398,
        2.7806,
        1.7771,
        2.2832,
        2.0279,
        0.8757,
        2.0267,
        3.2643,
        7.9119,
        4.914,
        12.2009,
        4.1979,
        6.5587,
        5.9335,
        6.2511,
        11.0146,
        13.1106,
        11.4094,
        5.4517,
        3.6783,
        5.5904,
        2.9196,
        2.1439,
        2.5829,
        3.1298,
        2.3222,
        4.3391,
        8.0485,
        7.0167,
        10.2192,
        2.5169,
        1.9409,
        5.7189,
        9.95,
        11.8977,
        11.8581,
        5.6079,
        3.9098,
        6.1299,
        5.4682,
        5.193,
        2.8733,
        4.4433,
        4.0189,
        2.5097,
        9.789,
        2.1556,
        0.6538,
        2.0263,
        2.2485,
        1.8266,
        3.702,
        8.8277,
        5.7549,
        4.6526,
        8.5795,
        8.6352,
        5.6342,
        7.2058,
        6.8657,
        12.076,
        4.989,
        4.1563,
        3.3576,
        3.698,
        5.2108,
        11.5558,
        6.7636,
        3.1801,
        0.8731,
        2.231,
        5.0595,
        11.2385,
        1.8003,
        12.5674,
        6.5832,
        16.6282,
        17.0654,
        12.9485,
        10.251,
        11.8999,
        4.4103,
        6.6181,
        18.5689,
        22.5701,
        10.6545,
        2.2997,
        1.301,
        1.0319,
        4.2505,
        9.673,
        9.1668,
        17.1314,
        2.677,
        1.0053,
        2.0092,
        11.7191,
        16.7762,
        6.4094,
        7.5536,
        6.3883,
        3.5257,
        1.1388,
        6.9945,
        2.672,
        1.1367,
        0.8905,
        2.7417,
        5.0962,
        4.0723,
        11.2376,
        6.4017,
        14.7333,
        4.8983,
        2.6853,
        2.7497,
        3.8167,
        3.6228,
        2.0933,
        6.5539,
        28.2183,
        5.3388,
        6.3535,
        2.1812,
        5.6333,
        2.0759,
        0.6326,
        3.0403,
        6.5232,
        2.1883,
        13.437,
        6.4721,
        7.7861,
        4.3015,
        2.6615,
        4.6911,
        5.3236,
        5.9774,
        3.2706,
        2.488,
        2.7309,
        5.9912,
        2.3787,
        4.3841,
        3.3773,
        4.5756,
        4.7588,
        8.9399,
        7.3035,
        3.4847,
        3.3985,
        5.0829,
        3.7029,
        4.0592,
        10.1045,
        5.0847,
        2.8215,
        9.5637,
        6.4415,
        2.5329,
        12.0619,
        17.0271,
        6.0952,
        4.5885,
        15.9608,
        13.1488,
        1.1673,
        1.6262,
        1.6329,
        4.7984,
        6.193,
        13.8308,
        2.5847,
        3.1671,
        4.6475,
        4.2622,
        2.7747,
        1.7353,
        4.0167,
        3.9951,
        4.6736,
        8.7547,
        2.4103,
        4.0063,
        3.9077,
        5.3456,
        5.4065,
        2.8473,
        3.062,
        2.0068,
        3.5191,
        3.5639,
        4.1942,
        1.8878,
        3.5828,
        1.0533,
        2.3582,
        0.8794,
        2.696,
        3.5218,
        3.4694,
        2.0424,
        0.9366,
        2.7224,
        3.3058,
        7.1471,
        8.6465,
        5.2263,
        2.6685,
        2.331,
        1.7691,
        2.3856,
        6.2609,
        3.4781,
        4.7115,
        1.825,
        1.8877,
        6.5962,
        1.2975,
        1.6375,
        4.3943,
        1.9393,
        2.3684,
        1.3779,
        1.5794,
        1.6787,
        5.0866,
        4.548,
        6.8483,
        8.3146,
        7.013,
        5.0049,
        8.0254,
        3.6281,
        5.1946,
        8.1504,
        1.7577,
        6.5411,
        1.7484,
        3.758,
        3.9538,
        1.779,
        1.7301,
        2.0937,
        2.3298
      ],
      "2": [
        1.3446,
        1.3265,
        1.253,
        1.2907,
        1.249,
        1.2204,
        1.1867,
        1.1855,
        1.1523,
        1.107,
        1.1452,
        1.1065,
        1.0899,
        1.0726,
        1.0433,
        1.0331,
        1.0455,
        1.0226,
        0.9829,
        0.9596,
        0.9876,
        0.9043,
        0.922,
        0.9337,
        0.8873,
        0.8895,
        0.8722,
        0.721,
        0.4787,
        0.4741,
        0.4845,
        0.5008,
        0.4483,
        0.4419,
        0.4497,
        0.4308,
        0.4231,
        0.4117,
        0.4171,
        0.3905,
        0.3948,
        0.3944,
        0.378,
        0.369,
        0.3538,
        0.349,
        0.3523,
        0.3341,
        0.3615,
        0.3222,
        0.3268,
        0.3276,
        0.321,
        0.2985,
        0.3049,
        0.2988,
        0.3022,
        0.2947,
        0.2837,
        0.2793,
        0.2838,
        0.277,
        0.2732,
        0.2573,
        0.2606,
        0.2532,
        0.2494,
        0.2405,
        0.2455,
        0.2784,
        0.278,
        0.2621,
        0.2772,
        0.2667,
        0.2452,
        0.2423,
        0.241,
        0.241,
        0.2389,
        0.2258,
        0.2321,
        0.2208,
        0.2196,
        0.2205,
        0.212,
        0.1993,
        0.2063,
        0.1975,
        0.1978,
        0.1877,
        0.1852,
        0.1788,
        0.1753,
        0.1752,
        0.1693,
        0.1706,
        0.1715,
        4.1771,
        3.8141,
        3.6024,
        3.7318,
        3.4465,
        4.1168,
        5.0922,
        3.5194,
        4.1567,
        3.4812,
        3.4899,
        3.8899,
        4.141,
        4.1721,
        3.5465,
        3.9195,
        3.3607,
        3.6046,
        4.4123,
        3.3673,
        3.6704,
        3.4941,
        3.8667,
        6.1013,
        3.8475,
        4.1478,
        3.9509,
        3.7981,
        4.2243,
        3.2348,
        3.3422,
        3.6486,
        3.2327,
        3.5052,
        3.1942,
        3.6827,
        3.9666,
        4.405,
        3.9533,
        4.332,
        4.6989,
        3.8312,
        3.1735,
        5.761,
        4.32,
        4.8213,
        4.6445,
        3.611,
        3.6868,
        3.6376,
        3.3858,
        2.9643,
        3.9634,
        3.4057,
        3.547,
        2.9697,
        3.0293,
        3.6367,
        4.0604,
        2.9168,
        3.1574,
        4.5625,
        3.4421,
        3.426,
        3.9899,
        3.515,
        4.5674,
        3.5814,
        4.0427,
        4.7274,
        3.3441,
        3.1456,
        3.957,
        4.6414,
        3.1515,
        3.6766,
        4.3744,
        3.3592,
        4.0242,
        3.9329,
        3.1494,
        3.1683,
        4.2908,
        3.7682,
        4.2486,
        2.7715,
        3.4566,
        4.1352,
        3.9166,
        3.7071,
        3.0547,
        3.7039,
        3.6838,
        3.5662,
        3.7763,
        3.1209,
        3.326,
        4.8298,
        5.1544,
        3.5933,
        5.8022,
        2.6301,
        3.2864,
        3.7204,
        3.403,
        3.2983,
        4.707,
        3.0107,
        2.7687,
        3.0415,
        4.3573,
        3.9822,
        3.1674,
        2.9546,
        2.7092,
        3.1631,
        3.5359,
        3.6723,
        4.0134,
        3.5165,
        3.6759,
        2.848,
        2.7239,
        3.5643,
        3.9315,
        3.5422,
        2.9222,
        3.5391,
        3.1081,
        3.919,
        3.3111,
        3.2948,
        3.3456,
        3.202,
        3.2847,
        2.9926,
        3.9004,
        2.7726,
        2.5045,
        4.1362,
        4.1417,
        2.6056,
        2.7232,
        3.2842,
        4.5564,
        2.8693,
        3.0419,
        3.0743,
        2.9077,
        2.9219,
        3.2409,
        2.8627,
        3.1233,
        2.5995,
        2.8697,
        2.9561,
        2.8571,
        2.8759,
        3.4042,
        2.6848,
        2.9734,
        3.1953,
        2.7832,
        3.046,
        3.1734,
        2.6174,
        2.8603,
        2.9286,
        3.6813,
        3.2208,
        2.6162,
        2.4272,
        3.3839,
        3.0178,
        3.1763,
        3.7985,
        2.6897,
        2.5444,
        3.247,
        4.1788,
        2.47,
        3.9067,
        2.4838,
        2.5948,
        2.5776,
        2.6386,
        2.917,
        2.7985,
        2.4985,
        2.8111,
        2.7385,
        2.8287,
        2.7077,
        2.3846,
        2.8182,
        2.4501,
        2.5517,
        2.682,
        2.8308,
        2.2965,
        2.7837,
        2.8898,
        2.3223,
        2.9826,
        2.3133,
        2.679,
        2.5442,
        2.494,
        2.032,
        1.6615,
        1.5684,
        1.631,
        1.7451,
        1.758,
        1.6394,
        1.5237,
        1.5842,
        1.6272,
        1.7324,
        1.6744,
        1.5901,
        1.651,
        1.4183,
        1.6566,
        1.6719,
        1.9504,
        1.473,
        1.553,
        1.4231,
        1.2716,
        1.3281,
        1.5725,
        1.6132,
        1.304,
        1.2688,
        1.8113,
        1.3564,
        1.7647,
        1.7092,
        1.6626,
        1.1866,
        1.1499,
        1.6909,
        1.3111,
        1.4418,
        1.6475,
        1.6263,
        1.493,
        1.51,
        1.1217,
        1.2371,
        1.5838,
        1.0183,
        1.5934,
        1.5155,
        0.9195,
        1.1156,
        1.1053,
        1.2499,
        0.9554,
        1.2295,
        1.3534,
        1.5249,
        1.0644,
        0.6225,
        1.2626,
        1.3664,
        1.2169,
        1.0565,
        1.2923,
        1.3253,
        1.3004,
        1.0066,
        1.4464,
        1.0985,
        1.4706,
        1.2619,
        1.3323,
        1.3934,
        1.2243,
        1.3407,
        1.3951,
        1.3512,
        1.5083,
        1.4551,
        1.3288,
        1.3903,
        1.1702,
        1.3191,
        1.2947,
        1.4359,
        1.4333,
        1.2922,
        1.2463,
        1.5107,
        1.1203,
        1.258,
        1.2194,
        1.362,
        1.2688,
        1.3692,
        1.163,
        1.3807,
        1.43,
        1.3083,
        1.2527,
        1.3252,
        1.4474,
        1.3517,
        1.393,
        1.333,
        1.4615,
        1.3318,
        1.4111,
        1.3962,
        1.4021,
        1.5631,
        1.5771,
        1.5674,
        1.505,
        1.5413,
        1.6151,
        1.7895,
        1.8251,
        1.9438,
        2.1151,
        2.3429,
        2.6077,
        2.9725,
        3.4035,
        3.8409,
        4.2151,
        4.5413,
        4.4655,
        4.3686,
        3.9788,
        3.5379,
        3.0481,
        2.6164,
        2.1839,
        1.9616,
        1.7691,
        1.5828,
        1.4926,
        1.3869,
        1.3047,
        1.2841,
        1.1328,
        1.2855,
        1.1188,
        1.0564,
        1.1942,
        1.1353,
        1.1146,
        1.1262,
        0.9647,
        1.0608,
        0.9418,
        1.0832,
        1.1346,
        1.0985,
        0.9865,
        1.211,
        1.1237,
        0.9848,
        1.1499,
        1.1145,
        1.1577,
        1.0231,
        0.4707,
        0.7709,
        1.0234,
        0.9942,
        1.0122,
        0.8257,
        1.1576,
        1.0347,
        0.9434,
        0.8977,
        0.9532,
        1.0207,
        0.8869,
        0.6895,
        0.959,
        1.0317,
        0.9279,
        0.9783,
        1.0418,
        0.7495,
        0.9237,
        1.0386,
        0.9038,
        1.0331,
        1.0116,
        0.9259,
        0.8617,
        0.7278,
        0.956,
        1.0836,
        0.6027,
        0.7139,
        1.0685,
        0.8805,
        0.9344,
        0.8572,
        0.9092,
        1.0056,
        0.7726,
        0.9098,
        1.0232,
        0.703,
        0.8877,
        0.7874,
        0.9402,
        1.058,
        0.8292,
        0.8904,
        0.8261,
        0.9552,
        0.8963,
        0.9,
        0.9545,
        0.9731,
        0.9888,
        0.9642,
        0.9887,
        0.9258,
        0.9203,
        0.936,
        0.9517,
        0.9347,
        0.9615,
        0.9325,
        0.9308,
        1.0356,
        0.9563,
        1.0466,
        1.0872,
        1.0586,
        1.1158,
        1.1169,
        1.1202,
        1.1728,
        1.2769,
        1.3039,
        1.3422,
        1.4409,
        1.5484,
        1.659,
        1.7947,
        2.0482,
        2.3038,
        2.59,
        3.031,
        3.4927,
        3.9877,
        4.2139,
        4.297,
        4.1474,
        3.8367,
        3.4544,
        3.0043,
        2.7198,
        2.3396,
        2.1613,
        1.9385,
        1.7851,
        1.6806,
        1.5881,
        1.5166,
        1.4839,
        1.3881,
        1.3561,
        1.3675,
        1.3607,
        1.2866,
        1.3255,
        1.3185,
        1.3766,
        1.4451,
        1.5679,
        1.7603,
        2.1383,
        2.4846,
        2.7875,
        2.7252,
        2.3477,
        1.8784,
        1.3789,
        1.0817,
        0.8781,
        0.8542,
        0.8217,
        0.7918,
        0.7622,
        0.7446,
        0.8293,
        0.8046,
        0.8071,
        0.7785,
        0.814,
        0.7991,
        0.7872,
        0.8161,
        0.7568,
        0.763,
        0.7204,
        0.7692,
        0.7761,
        0.7689,
        0.7498,
        0.7121,
        0.8171,
        0.7869,
        0.7436,
        0.7795,
        0.7509,
        0.7211,
        0.7064,
        0.8013,
        0.7539,
        0.7802,
        0.7552,
        0.8124,
        0.7549,
        0.7447,
        0.7278,
        0.7739,
        0.8093,
        0.7722,
        0.7713,
        0.8267,
        0.8546,
        0.8932,
        0.8798,
        0.9344,
        0.9973,
        1.0573,
        1.1734,
        1.3852,
        1.6534,
        1.9605,
        2.1395,
        2.0133,
        1.6745,
        1.364,
        1.271,
        1.6363,
        2.333,
        2.9887,
        3.0878,
        2.7629,
        2.1364,
        1.6607,
        1.3688,
        1.1985,
        1.1286,
        1.1166,
        1.1035,
        1.117,
        1.134,
        1.1881,
        1.1954,
        1.2378,
        1.2568,
        1.2348,
        1.2381,
        1.1883,
        1.1235,
        1.1109,
        1.0307,
        0.9897,
        0.9134,
        0.9147,
        0.8702,
        0.8315,
        0.7779,
        0.7483,
        0.7638,
        0.713,
        0.7018,
        0.6905,
        0.7158,
        0.6687,
        0.664,
        0.6705,
        0.6628,
        0.6462,
        0.655,
        0.6571,
        0.648,
        0.6628,
        0.6321,
        0.6927,
        0.6781,
        0.7111,
        0.738,
        0.8069,
        0.9668,
        1.3874,
        1.9469,
        2.4052,
        2.2387,
        1.6278,
        1.1262,
        0.8313,
        0.6834,
        0.6188,
        0.571,
        0.5664,
        0.5411,
        0.5001,
        0.5305,
        0.5674,
        0.5121,
        0.4968,
        0.5463,
        0.5592,
        0.4942,
        0.5162,
        0.5569,
        0.5124,
        0.5382,
        0.5224,
        0.471,
        0.4977,
        0.5764,
        0.5243,
        0.5535,
        0.5186,
        0.4947,
        0.4893,
        0.4975,
        0.5361,
        0.4504,
        0.4854,
        0.4699,
        0.5055,
        0.5249,
        0.5806,
        0.5042,
        0.4629,
        0.483,
        0.5197,
        0.4777,
        0.4271,
        0.4849,
        0.4959,
        0.5241,
        0.456,
        0.4978,
        0.48,
        0.4709,
        0.5341,
        0.5497,
        0.5701,
        0.6729,
        0.8626,
        1.3797,
        2.1065,
        2.3382,
        1.7887,
        1.1629,
        0.8201,
        0.6333,
        0.5674,
        0.5082,
        0.4885,
        0.4692,
        0.4448,
        0.4676,
        0.4365,
        0.4445,
        0.4579,
        0.4584,
        0.516,
        0.5638,
        0.5054,
        0.4241,
        0.4536,
        0.3871,
        0.4053,
        0.4579,
        0.409,
        0.3957,
        0.3953,
        0.4075,
        0.4116,
        0.3895,
        0.3958,
        0.437,
        0.4592,
        0.4224,
        0.4659,
        0.46,
        0.5747,
        0.9306,
        1.3928,
        1.2806,
        0.8016,
        0.5321,
        0.4248,
        0.3931,
        0.3659,
        0.3832,
        0.426,
        0.3952,
        0.3633,
        0.3741,
        0.3808,
        0.3364,
        0.3877,
        0.2848,
        0.4112,
        0.3556,
        0.3561,
        0.3494,
        0.3516,
        0.3927,
        0.3121,
        0.349,
        0.393,
        0.2504,
        0.278,
        0.3257,
        0.2974,
        0.3581,
        0.3221,
        0.4041,
        0.3375,
        0.3548,
        0.3363,
        0.3518,
        0.3151,
        0.3023,
        0.3519,
        0.3307,
        0.336,
        0.3551,
        0.4032,
        0.5382,
        0.5484,
        0.4032,
        0.34,
        0.2964,
        0.3149,
        0.298,
        0.3146,
        0.2886,
        0.3339,
        0.2796,
        0.315,
        0.3332,
        0.2221,
        0.2493,
        0.2673,
        0.2173,
        0.2993,
        0.3085,
        0.2456,
        0.3225,
        0.2533,
        0.3276,
        0.2126,
        0.2756,
        0.316,
        0.421,
        0.4126,
        0.4169,
        0.3527,
        0.3054,
        0.3003,
        0.2695,
        0.2295,
        0.2196,
        0.1757,
        0.2374,
        0.2677,
        0.2604,
        0.1993,
        0.24,
        0.2453,
        0.3016,
        0.2334,
        0.3022,
        0.2235,
        0.245,
        0.2534,
        0.3011,
        0.2396,
        0.2537,
        0.2624,
        0.2691,
        0.208,
        0.2918,
        0.2407,
        0.2072,
        0.276,
        0.3068,
        0.2764,
        0.2678,
        0.2648,
        0.2423,
        0.2914,
        0.249,
        0.2531,
        0.1895,
        0.2254,
        0.2743,
        0.2044,
        0.3189,
        0.2847,
        0.2348,
        0.2362,
        0.2932,
        0.2654,
        0.2591,
        0.287,
        0.2663,
        0.2417,
        0.3139,
        0.3583,
        0.534,
        0.8091,
        1.0252,
        1.0992,
        1.1251,
        0.8966,
        0.5966,
        0.4511,
        0.394,
        0.2915,
        0.2602,
        0.2653,
        0.2724,
        0.2755,
        0.259,
        0.1943,
        0.2483,
        0.312,
        0.2978,
        0.2617,
        0.2144,
        0.2531,
        0.2622,
        0.3137,
        0.4351,
        0.7377,
        1.0249,
        0.8909,
        0.5842,
        0.4064,
        0.3716,
        0.3071,
        0.2855,
        0.2812,
        0.2512,
        0.2537,
        0.2739,
        0.2947,
        0.315,
        0.302,
        0.2932,
        0.2946,
        0.3264,
        0.3512,
        0.4041,
        0.4492,
        0.5689,
        0.7704,
        1.0409,
        1.0993,
        0.9552,
        0.7386,
        0.5857,
        0.5044,
        0.4542,
        0.4262,
        0.4405,
        0.4399,
        0.4632,
        0.4983,
        0.5717,
        0.6541,
        0.7054,
        0.9865,
        0.822,
        0.9239,
        0.7325,
        0.5192,
        0.4509,
        0.4117,
        0.3896,
        0.3816,
        0.3557,
        0.3452,
        0.366,
        0.3279,
        0.3432,
        0.3198,
        0.4045,
        0.6836,
        1.037,
        0.9275,
        0.5757,
        0.4462,
        0.3899,
        0.3474,
        0.3092,
        0.3272,
        0.3039,
        0.2881,
        0.2927,
        0.2824,
        0.3034,
        0.3027,
        0.3055,
        0.3543,
        0.4743,
        0.6553,
        0.6088,
        0.4185,
        0.3854,
        0.3918,
        0.4506,
        0.5092,
        0.6351,
        0.7895,
        0.9638,
        1.1201,
        1.1473,
        1.1031,
        0.9836,
        0.9062,
        0.8214,
        0.7881,
        0.8333,
        1.1474,
        1.3617,
        1.104,
        0.781,
        0.6747,
        0.602,
        0.5731,
        0.5639,
        0.5576,
        0.5343,
        0.5221,
        0.5163,
        0.5147,
        0.4972,
        0.4921,
        0.4866,
        0.475,
        0.4764,
        0.5352,
        0.6039,
        0.5383,
        0.4478,
        0.4143,
        0.3828,
        0.3794,
        0.3442,
        0.332,
        0.3671,
        0.5002,
        0.8116,
        1.306,
        1.3724,
        0.879,
        0.6183,
        0.505,
        0.4464,
        0.4158,
        0.3824,
        0.3708,
        0.3609,
        0.3376,
        0.3335,
        0.333,
        0.313,
        0.3106,
        0.3016,
        0.2965,
        0.3019,
        0.2974,
        0.2887,
        0.2878,
        0.2777,
        0.2763,
        0.2852,
        0.2886,
        0.2816,
        0.2901,
        0.291,
        0.3051,
        0.3146,
        0.3389,
        0.4145,
        0.6616,
        0.6514,
        0.6167,
        1.4253,
        1.6689,
        0.9648,
        0.5851,
        0.4324,
        0.3383,
        0.2941,
        0.268,
        0.2566,
        0.2516,
        0.2599,
        0.24,
        0.238,
        0.2522,
        0.2382,
        0.2084,
        0.2265,
        0.2401,
        0.264,
        0.3093,
        0.3655,
        0.4106,
        0.4497,
        0.4692,
        0.4537,
        0.4619,
        0.4718,
        0.4816,
        0.5102,
        0.5447,
        0.595,
        0.6522,
        0.7224,
        0.8441,
        0.8928,
        0.7017,
        0.5926,
        0.5086,
        0.4403,
        0.3915,
        0.3478,
        0.3227,
        0.3004,
        0.2865,
        0.2739,
        0.2625,
        0.2716,
        0.4052,
        0.5817,
        0.3535,
        0.2916,
        0.268,
        0.2505,
        0.2678,
        0.276,
        0.264,
        0.2665,
        0.2822,
        0.3053,
        0.4028,
        0.42,
        0.404,
        0.4328,
        0.4214,
        0.3741,
        0.3323,
        0.3065,
        0.2946,
        0.2805,
        0.2845,
        0.2897,
        0.2796,
        0.2831,
        0.2785,
        0.2566,
        0.2528,
        0.2694,
        0.307,
        0.2504,
        0.2181,
        0.2291,
        0.2856,
        0.2974,
        0.242,
        0.5097,
        0.5173,
        0.2694,
        0.2233,
        0.1903,
        0.184,
        0.176,
        0.1865,
        0.2046,
        0.1665,
        0.1762,
        0.1587,
        0.1602,
        0.1486,
        0.1837,
        0.1994,
        0.2255,
        0.2383,
        0.4234,
        0.4115,
        0.2666,
        0.2266,
        0.268,
        0.6812,
        0.5279,
        0.2813,
        0.2511,
        0.3367,
        0.2191,
        0.1905,
        0.1914,
        0.2171,
        0.1888,
        0.1907,
        0.1947,
        0.2266,
        0.2295,
        0.2206,
        0.2269,
        0.224,
        0.2343,
        0.2591,
        0.2856,
        0.3145,
        0.3399,
        0.3302,
        0.2991,
        0.3024,
        0.2297,
        0.1961,
        0.1978,
        0.359,
        0.2594,
        0.1806,
        0.1559,
        0.148,
        0.1496,
        0.1391,
        0.1418,
        0.2658,
        0.3721,
        0.2281,
        0.166,
        0.188,
        0.2584,
        0.1911,
        0.1938,
        0.1806,
        0.2136,
        0.1594,
        0.1368,
        0.1383,
        0.1376,
        0.1399,
        0.1525,
        0.1866,
        0.3207,
        0.4346,
        0.2669,
        0.1818,
        0.1542,
        0.1349,
        0.1318,
        0.1269,
        0.152,
        0.2993,
        0.1755,
        0.2366,
        0.2981,
        0.1603,
        0.1371,
        0.1721,
        0.1502,
        0.1251,
        0.1138,
        0.1131,
        0.1601,
        0.1632,
        0.1473,
        0.1406,
        0.121,
        0.122,
        0.1314,
        0.1642,
        0.21,
        0.2227,
        0.1724,
        0.1285,
        0.1229,
        0.1202,
        0.1238,
        0.1017,
        0.1208,
        0.2781,
        0.435,
        0.2635,
        0.1741,
        0.3021,
        0.164,
        0.1572,
        0.3509,
        0.3548,
        0.1581,
        0.1501,
        0.1057,
        0.1126,
        0.1428,
        0.1295,
        0.1204,
        0.1169,
        0.1457,
        0.1131,
        0.1905,
        0.1277,
        0.1234,
        0.1199,
        0.1336,
        0.1507,
        0.1481,
        0.1294,
        0.1536,
        0.1442,
        0.1557,
        0.1171,
        0.1305,
        0.1244,
        0.1178,
        0.1923,
        0.1064,
        0.106,
        0.1395,
        0.1456,
        0.1779,
        0.1315,
        0.1621,
        0.149,
        0.159,
        0.1977,
        0.2192,
        0.1809,
        0.1415,
        0.1567,
        0.1269,
        0.2635,
        0.3039,
        0.2269,
        0.1815,
        0.1409,
        0.1603,
        0.1186,
        0.118,
        0.1185,
        0.1385,
        0.0999,
        0.105,
        0.1379,
        0.1496,
        0.1519,
        0.061,
        0.1393,
        0.1236,
        0.1102,
        0.0896,
        0.1021,
        0.0768,
        0.1517,
        0.1344,
        0.0818,
        0.0842,
        0.1468,
        0.1528,
        0.2102,
        0.192,
        0.1802,
        0.3253,
        0.2789,
        0.1574,
        0.2313,
        0.2107,
        0.2344,
        0.1727,
        0.1181,
        0.1363,
        0.1366,
        0.2993,
        0.3822,
        0.1805,
        0.1419,
        0.1878,
        0.2397,
        0.2367,
        0.1907,
        0.1637,
        0.1848,
        0.3958,
        0.4411,
        0.181,
        0.1781,
        0.238,
        0.1682,
        0.1573,
        0.1778,
        0.1556,
        0.16,
        0.1628,
        0.1689,
        0.1701,
        0.1811,
        0.1824,
        0.164,
        0.1526,
        0.1617,
        0.1689,
        0.1709,
        0.1688,
        0.1774,
        0.1851,
        0.187,
        0.1989,
        0.1997,
        0.2232,
        0.2453,
        0.2359,
        0.2423,
        0.2347,
        0.194,
        0.1861,
        0.181,
        0.1504,
        0.188,
        0.1788,
        0.1613,
        0.1574,
        0.1629,
        0.1731,
        0.1737,
        0.1762,
        0.2216,
        0.3039,
        0.1852,
        0.1608,
        0.1448,
        0.1206,
        0.1325,
        0.1535,
        0.1246,
        0.146,
        0.1417,
        0.1333,
        0.205,
        0.2584,
        0.1308,
        0.1717,
        0.1836,
        0.1202,
        0.1357,
        0.1556,
        0.3399,
        0.4975,
        0.2213,
        0.325,
        0.459,
        0.207,
        0.1784,
        0.1661,
        0.1383,
        0.1516,
        0.1275,
        0.1376,
        0.2591,
        0.2542,
        0.1277,
        0.1381,
        0.1626,
        0.1442,
        0.1606,
        0.1565,
        0.2208,
        0.219,
        0.1257,
        0.1288,
        0.1507,
        0.1589,
        0.1681,
        0.1717,
        0.1731,
        0.1891,
        0.239,
        0.2443,
        0.197,
        0.1782,
        0.1657,
        0.1401,
        0.1181,
        0.1141,
        0.1319,
        0.1348,
        0.1255,
        0.1294,
        0.1694,
        0.2896,
        0.1894,
        0.1149,
        0.1106,
        0.1124,
        0.1078,
        0.1113,
        0.1432,
        0.1482,
        0.1532,
        0.1169,
        0.1665,
        0.3595,
        0.4334,
        0.3109,
        0.228,
        0.1776,
        0.1484,
        0.1704,
        0.1319,
        0.1201,
        0.1279,
        0.1517,
        0.1798,
        0.2152,
        0.1964,
        0.1747,
        0.1577,
        0.1564,
        0.1628,
        0.221,
        0.1848,
        0.1561,
        0.1396,
        0.1254,
        0.114,
        0.1101,
        0.1244,
        0.1322,
        0.1435,
        0.2216,
        0.2413,
        0.2052,
        0.2531,
        0.2112,
        0.1769,
        0.2228,
        0.1297,
        0.1074,
        0.102,
        0.1147,
        0.1863,
        0.1655,
        0.2628,
        0.1743,
        0.1647,
        0.17,
        0.2184,
        0.4724,
        0.404,
        0.2139,
        0.1866,
        0.1855,
        0.19,
        0.2003,
        0.221,
        0.2989,
        0.2904,
        0.2612,
        0.3314,
        0.316,
        0.2773,
        0.2702,
        0.2861,
        0.3903,
        0.2071,
        0.1512,
        0.1508,
        0.1369,
        0.1234,
        0.1444,
        0.1622,
        0.2141,
        0.1768,
        0.1681,
        0.2345,
        0.1755,
        0.1459,
        0.1673,
        0.157,
        0.2924,
        0.3648,
        0.2276,
        0.1667,
        0.1946,
        0.1751,
        0.2794,
        0.3515,
        0.1494,
        0.1259,
        0.0946,
        0.1012,
        0.1823,
        0.1926,
        0.395,
        0.275,
        0.152,
        0.1271,
        0.1064,
        0.0941,
        0.094,
        0.0993,
        0.0985,
        0.1298,
        0.1073,
        0.0967,
        0.0994,
        0.1148,
        0.1266,
        0.1588,
        0.1384,
        0.1203,
        0.1198,
        0.1463,
        0.0945,
        0.1368,
        0.1423,
        0.0909,
        0.1215,
        0.0966,
        0.0945,
        0.0944,
        0.0969,
        0.1263,
        0.1233,
        0.125,
        0.1138,
        0.1146,
        0.1331,
        0.1757,
        0.1993,
        0.1732,
        0.1445,
        0.1486,
        0.1248,
        0.0987,
        0.0917,
        0.105,
        0.098,
        0.0907,
        0.0796,
        0.0817,
        0.0905,
        0.1508,
        0.2091,
        0.0725,
        0.0798,
        0.0827,
        0.0853,
        0.0911,
        0.1092,
        0.1055,
        0.1115,
        0.0966,
        0.0973,
        0.1243,
        0.1647,
        0.1616,
        0.1265,
        0.1365,
        0.1003,
        0.1571,
        0.0989,
        0.0757,
        0.0776,
        0.0915,
        0.0958,
        0.0934,
        0.1268,
        0.084,
        0.1047,
        0.1467,
        0.0938,
        0.1123,
        0.0784,
        0.0721,
        0.0716,
        0.0913,
        0.0824,
        0.0896,
        0.1338,
        0.1424,
        0.1772,
        0.1462,
        0.0816,
        0.1369,
        0.1268,
        0.099,
        0.1193,
        0.1694,
        0.1888,
        0.1864,
        0.0874,
        0.0846,
        0.092,
        0.089,
        0.0766,
        0.0905,
        0.1023,
        0.1406,
        0.1111,
        0.1651,
        0.1048,
        0.1292,
        0.1215,
        0.1242,
        0.1578,
        0.168,
        0.1574,
        0.1117,
        0.1007,
        0.1193,
        0.0901,
        0.0866,
        0.0908,
        0.0945,
        0.091,
        0.1083,
        0.1372,
        0.1287,
        0.1477,
        0.0856,
        0.0833,
        0.1205,
        0.1461,
        0.157,
        0.1555,
        0.1115,
        0.1008,
        0.1179,
        0.1126,
        0.1107,
        0.0877,
        0.1061,
        0.0997,
        0.0839,
        0.1442,
        0.0748,
        0.0603,
        0.0818,
        0.0815,
        0.0798,
        0.0968,
        0.1382,
        0.1094,
        0.1044,
        0.1319,
        0.1324,
        0.1091,
        0.1228,
        0.1194,
        0.1538,
        0.102,
        0.099,
        0.0909,
        0.0972,
        0.1076,
        0.1487,
        0.1147,
        0.0881,
        0.0616,
        0.0801,
        0.1052,
        0.1485,
        0.0623,
        0.1555,
        0.1069,
        0.1751,
        0.1695,
        0.155,
        0.1323,
        0.1499,
        0.0978,
        0.1157,
        0.1834,
        0.194,
        0.1385,
        0.0721,
        0.0648,
        0.0614,
        0.0972,
        0.1322,
        0.1308,
        0.169,
        0.0728,
        0.0573,
        0.0744,
        0.1461,
        0.1685,
        0.1025,
        0.1196,
        0.1044,
        0.0855,
        0.0602,
        0.1143,
        0.0738,
        0.0593,
        0.0621,
        0.0818,
        0.1,
        0.0903,
        0.1383,
        0.1101,
        0.1539,
        0.0912,
        0.0766,
        0.0797,
        0.0883,
        0.0831,
        0.0719,
        0.1095,
        0.2082,
        0.0905,
        0.1047,
        0.0659,
        0.1026,
        0.0623,
        0.0528,
        0.0803,
        0.1068,
        0.0672,
        0.1476,
        0.101,
        0.1155,
        0.0825,
        0.0738,
        0.0911,
        0.0954,
        0.1001,
        0.0766,
        0.0738,
        0.0753,
        0.1012,
        0.0676,
        0.0893,
        0.0776,
        0.0895,
        0.0897,
        0.1192,
        0.1032,
        0.0788,
        0.0793,
        0.0917,
        0.0787,
        0.0837,
        0.1217,
        0.0899,
        0.0716,
        0.1209,
        0.0946,
        0.0707,
        0.1345,
        0.1499,
        0.0946,
        0.0857,
        0.1513,
        0.1316,
        0.0485,
        0.0598,
        0.0611,
        0.0869,
        0.097,
        0.1365,
        0.0622,
        0.0724,
        0.0857,
        0.0803,
        0.0678,
        0.0608,
        0.0806,
        0.0791,
        0.0845,
        0.1102,
        0.0608,
        0.0797,
        0.0768,
        0.0902,
        0.0858,
        0.0688,
        0.072,
        0.0611,
        0.0747,
        0.0748,
        0.0787,
        0.0573,
        0.0751,
        0.046,
        0.0627,
        0.05,
        0.0688,
        0.0721,
        0.0726,
        0.0587,
        0.0482,
        0.067,
        0.0705,
        0.0964,
        0.1045,
        0.0834,
        0.0629,
        0.0627,
        0.0546,
        0.0621,
        0.0921,
        0.0671,
        0.0811,
        0.053,
        0.0586,
        0.0907,
        0.0487,
        0.0552,
        0.0762,
        0.0556,
        0.0616,
        0.0496,
        0.0532,
        0.0533,
        0.0822,
        0.0762,
        0.0914,
        0.1014,
        0.0884,
        0.0822,
        0.0969,
        0.0672,
        0.0821,
        0.0984,
        0.0518,
        0.0897,
        0.0528,
        0.0729,
        0.07,
        0.0522,
        0.0531,
        0.0576,
        0.0574
      ]
    }
  }
}